Time (s),Acceleration x (m/s^2),Acceleration y (m/s^2),Acceleration z (m/s^2),Absolute acceleration (m/s^2),label
0.015269875,-0.01167572021,6.353238373,7.241940308,9.633767361,0.0
0.025210875,-0.005688171387,6.280789032,8.012088776,10.18046707,0.0
0.035151875,-0.146844635,6.000721436,8.799750824,10.65203434,0.0
0.045093875,-0.3218307495,5.588628387,9.445657654,10.97983565,0.0
0.055034875,-0.5397775269,5.184169464,9.807006226,11.10604988,0.0
0.06497587502,-0.7813751221,4.957989807,9.89187973,11.09240707,0.0
0.07491687502,-1.039288788,4.877157898,9.686357117,10.89459979,0.0
0.08485787502,-1.247056732,4.861889648,9.349557495,10.61166089,0.0
0.09479887501,-1.260678406,4.929848328,9.016799469,10.35352052,0.0
0.104740875,-1.135838013,5.123695221,8.696615295,10.15743562,0.0
0.114681875,-0.9663903809,5.353916473,8.291707306,9.917194261,0.0
0.124622875,-0.920735321,5.51932251,7.884104919,9.66797729,0.0
0.134563875,-1.017733612,5.59416687,7.572003937,9.469198926,0.0
0.144504875,-1.209185486,5.686973877,7.322622528,9.350112411,0.0
0.154446875,-1.289568329,5.768105164,7.07788147,9.221194595,0.0
0.164387875,-1.187181244,5.743406525,6.931785278,9.079965031,0.0
0.174328875,-1.039438477,5.716462555,6.869065704,8.996801662,0.0
0.184269875,-0.9349557495,5.812712402,7.02758606,9.167809638,0.0
0.194210875,-0.850531311,5.951174469,7.449708252,9.572775674,0.0
0.204152875,-0.7087760925,5.934559021,7.884104919,9.89345565,0.0
0.214093875,-0.5384303284,5.796845398,8.160579987,10.02438973,0.0
0.224034875,-0.479153595,5.635930023,8.260422363,10.01138717,0.0
0.233975875,-0.5441184998,5.443879395,8.235873413,9.887441463,0.0
0.243916875,-0.7143145752,5.257666626,8.136480103,9.713681698,0.0
0.253858875,-0.8909472656,5.054239655,8.318351898,9.77415489,0.0
0.263799875,-1.139729919,4.84886673,8.83298172,10.14061433,0.0
0.273740875,-1.374292145,4.831053772,9.260492706,10.5349174,0.0
0.283681875,-1.496288452,4.908592529,9.311087494,10.63153376,0.0
0.293622875,-1.576521606,4.965324554,8.927435303,10.33629379,0.0
0.303564875,-1.800306244,5.105433197,8.283175049,9.895329181,0.0
0.313505875,-2.008822632,5.303171997,7.613318024,9.493240381,0.0
0.323446875,-2.15177536,5.48654068,7.093449097,9.222216974,0.0
0.333387875,-2.141596527,5.615871735,6.839427338,9.105065477,0.0
0.343328875,-1.925296326,5.653144226,6.790479126,9.042975857,0.0
0.353270875,-1.550775146,5.695655823,6.846762085,9.040107845,0.0
0.363211875,-1.270857239,5.75687851,6.91636734,9.088061701,0.0
0.373152875,-1.230291595,5.872737579,7.084168396,9.283754949,0.0
0.383093875,-1.365310822,5.976022797,7.444469147,9.643497446,0.0
0.393034875,-1.526525574,6.093079376,8.034691772,10.19863562,0.0
0.402976875,-1.692230988,6.077661438,8.752449188,10.78920669,0.0
0.412917875,-1.78668457,5.818400574,9.329199829,11.13912009,0.0
0.422858875,-1.823807373,5.391937408,9.781110077,11.31677413,0.0
0.432799875,-1.857786713,4.936883698,10.16116974,11.44873629,0.0
0.442740875,-1.947300568,4.504283295,10.39049286,11.49099166,0.0
0.452682875,-2.11435318,4.067341919,10.44333298,11.40512882,0.0
0.462623875,-2.277513885,3.634891205,10.35022659,11.2038696,0.0
0.472564875,-2.424807587,3.254382477,10.15667908,10.93749638,0.0
0.482505875,-2.438129883,2.988235931,9.918674011,10.64209216,0.0
0.492446875,-2.399659882,2.834355927,9.554331665,10.25071679,0.0
0.502388625,-2.341131592,2.809956665,9.055718536,9.766411408,0.0
0.512329625,-2.430196381,3.058739319,8.815168762,9.642040291,0.0
0.522270625,-2.580483856,3.462898865,8.585246887,9.610256479,0.0
0.532211625,-2.562371521,3.821702728,8.312364349,9.500871572,0.0
0.542152625,-2.43962677,4.12572052,8.094118195,9.406811252,0.0
0.552094625,-2.258353729,4.415068817,7.940537567,9.361897835,0.0
0.562035625,-2.056124268,4.6382547,7.928562469,9.41292497,0.0
0.571976625,-1.839225311,4.81024704,8.054600372,9.560220368,0.0
0.581917625,-1.709145813,4.846172333,8.260721741,9.728622172,0.0
0.591858625,-1.65914978,4.803660736,8.620423737,10.00697956,0.0
0.601799625,-1.678160248,4.715045013,9.066196747,10.35585799,0.0
0.611741625,-1.71303772,4.565356293,9.513616333,10.69045705,0.0
0.621682625,-1.715582428,4.292623444,9.837393036,10.86941309,0.0
0.631623625,-1.714833984,3.955823822,9.959239655,10.85244913,0.0
0.641564625,-1.719324646,3.630400543,9.956844635,10.73660283,0.0
0.651505625,-1.714235229,3.394790497,9.822723541,10.533238,0.0
0.661447625,-1.622476044,3.230432281,9.561367035,10.22193039,0.0
0.671388625,-1.594484253,3.085832977,9.251062317,9.881644559,0.0
0.681329625,-1.643731842,3.090024261,8.971144409,9.629721508,0.0
0.691270625,-1.733844452,3.225342865,8.845555573,9.573552453,0.0
0.701211625,-1.791624298,3.391796722,8.832233276,9.629254762,0.0
0.711153625,-1.804647217,3.567082214,8.872200165,9.731226175,0.0
0.721094625,-1.719624023,3.668421478,8.921148376,9.798025887,0.0
0.731035625,-1.548380127,3.714375916,8.912316742,9.778724823,0.0
0.740976625,-1.354383545,3.782633972,8.866811371,9.734629856,0.0
0.750917625,-1.174607391,3.873794403,8.703950043,9.599204756,0.0
0.760859625,-1.033001862,3.952830048,8.510402527,9.440281214,0.0
0.770800625,-0.9961784363,4.010460205,8.249345398,9.226476144,0.0
0.780741625,-1.041234741,4.055067444,7.981252899,9.01266551,0.0
0.790682625,-1.162183228,4.091890869,7.790998535,8.876592754,0.0
0.800623625,-1.277144165,4.123924255,7.627538452,8.764541706,0.0
0.810565625,-1.381477203,4.14562912,7.585775299,8.7543536,0.0
0.820506625,-1.513502655,4.179159393,7.645052032,8.843239457,0.0
0.830447625,-1.601519623,4.198020172,7.770790558,8.97627007,0.0
0.840388625,-1.616638184,4.192182312,7.936046906,9.119690348,0.0
0.850329625,-1.513802032,4.157155151,8.191864929,9.310219469,0.0
0.860270625,-1.294208679,4.09877655,8.402776337,9.438304693,0.0
0.870212625,-1.04722229,4.038451996,8.513845367,9.481103944,0.0
0.880153625,-0.9042695618,3.956272888,8.482111359,9.402978874,0.0
0.890094625,-0.8867559814,3.885769501,8.331674194,9.235926357,0.0
0.900035625,-1.06473587,3.833977203,8.154143372,9.07320769,0.0
0.909976625,-1.404828644,3.808230743,8.035140839,9.002202687,0.0
0.919918625,-1.77620636,3.752696228,8.045319672,9.053441701,0.0
0.929859625,-2.029180298,3.707639923,8.17659668,9.204395675,0.0
0.939800625,-2.172582092,3.721710663,8.444389801,9.480451588,0.0
0.949741625,-2.066452789,3.733087006,8.620723114,9.618889371,0.0
0.959682625,-1.784588928,3.702700195,8.681646423,9.605505244,0.0
0.969624625,-1.508862305,3.665577393,8.688532104,9.550063518,0.0
0.979565625,-1.337618408,3.739224243,8.783434753,9.639488939,0.0
0.989506625,-1.229543152,3.855083313,9.007668457,9.874792896,0.0
0.999447625,-1.116977234,4.017495575,9.294771423,10.18728053,0.0
1.009388625,-1.053808594,4.159849548,9.546098785,10.46627263,0.0
1.019330625,-1.063388672,4.202061768,9.774374084,10.69235743,0.0
1.029271625,-1.096619568,4.180955658,9.908195801,10.8099634,0.0
1.039212625,-1.059496765,4.171225891,9.938582611,10.83037779,0.0
1.049153625,-0.9589059448,4.144730988,9.86149292,10.73998781,0.0
1.059094625,-0.8786727905,4.02153717,9.682315521,10.52102946,0.0
1.069036625,-0.8550219727,3.827989655,9.463919678,10.24452747,0.0
1.078977625,-0.9262738037,3.624712372,9.118138733,9.855809297,0.0
1.088918625,-1.124012604,3.523223419,8.804690552,9.549821114,0.0
1.098859625,-1.364113312,3.509901123,8.601113892,9.389322191,0.0
1.108800625,-1.579365692,3.461851044,8.461903381,9.278071862,0.0
1.118741625,-1.703757019,3.451223145,8.465795288,9.299646178,0.0
1.128683625,-1.703457642,3.460354156,8.672216034,9.491214346,0.0
1.138624625,-1.601519623,3.390748901,8.889863434,9.648404795,0.0
1.148565625,-1.407373352,3.278332672,9.07398056,9.750142977,0.0
1.158506625,-1.157991943,3.139720917,9.253756714,9.840264534,0.0
1.168447625,-0.9177415466,3.029849396,9.397607574,9.916514762,0.0
1.178389625,-0.7945477295,2.970572662,9.589807892,10.07075089,0.0
1.188330625,-0.7411088562,2.84094223,9.943522339,10.36792321,0.0
1.198271625,-0.6827302551,2.708617401,10.34828064,10.71865855,0.0
1.208212625,-0.4114942932,2.53093689,10.75423645,11.05570309,0.0
1.218153625,0.02230361938,2.341281281,10.96110626,11.2083873,0.0
1.228095625,0.4173321533,2.123783569,10.93625793,11.14837927,0.0
1.238036625,0.7402107239,1.951192474,10.68118835,10.88314516,0.0
1.247977625,0.9220825195,1.824256439,10.32956955,10.52986965,0.0
1.257918625,1.037791901,1.753154297,10.02809647,10.23295074,0.0
1.267859625,1.069076843,1.745071106,9.715097351,9.928308768,0.0
1.277800625,0.9831555176,1.757195892,9.372759247,9.58660253,0.0
1.287742625,0.8005352783,1.798210602,9.229806519,9.437359083,0.0
1.297683625,0.5948629761,1.837129669,9.295519867,9.493976879,0.0
1.307624625,0.4447251892,1.803599396,9.692494354,9.868900551,0.0
1.317565625,0.6306385803,1.797761536,9.99486557,10.17482134,0.0
1.327506625,0.9815089417,1.779349823,10.16745667,10.36853995,0.0
1.337448625,1.454225922,1.806742859,10.23571472,10.49518693,0.0
1.347389625,1.930834808,1.878144379,10.04471191,10.39960513,0.0
1.357330625,2.260898438,1.971400452,9.731862488,10.18367463,0.0
1.367271625,2.264191589,2.294428711,9.410630493,9.947408353,0.0
1.377212625,2.086511078,2.401306458,9.117539978,9.6565696,0.0
1.387154625,1.809886322,1.76093811,8.488098907,8.855756015,0.0
1.397095625,1.450184326,1.836381226,7.971223755,8.307571169,0.0
1.407036625,1.350791016,2.55892868,8.747659149,9.213809904,0.0
1.416977625,1.876946869,2.818189545,9.436826019,10.0259068,0.0
1.426918625,2.307002563,2.305954742,9.488468628,10.0334802,0.0
1.436859625,2.17048645,1.466799774,9.208401031,9.573774729,0.0
1.446801625,1.362466736,0.8869056702,8.960217133,9.106503629,0.0
1.456742625,0.1342707825,0.9446855164,9.157207489,9.206785995,0.0
1.466683625,-0.9592053223,1.638642426,9.659712524,9.844555343,0.0
1.476624625,-1.646875305,2.417772217,10.14919464,10.5623848,0.0
1.486565625,-2.030826874,2.58242981,10.25771896,10.77097952,0.0
1.496507625,-2.059267731,2.145039368,9.812844086,10.25347193,0.0
1.506452208,-1.802252197,1.505269775,9.121581573,9.418980862,0.0
1.516393208,-1.648970947,0.9725276184,8.663234711,8.872234826,0.0
1.526334208,-1.75510025,0.6509962463,8.488847351,8.692796003,0.0
1.536275208,-2.119143219,0.5842350769,8.517138519,8.796234829,0.0
1.546216208,-2.597398682,0.6462062073,8.712332611,9.114208792,0.0
1.556158208,-2.833457794,0.615819397,8.771609344,9.238443976,0.0
1.566099208,-2.820135498,0.4152365112,8.879235535,9.325578227,0.0
1.576040208,-2.683170319,0.03532653809,8.991502075,9.383376817,0.0
1.585981208,-2.472109222,-0.3876937866,8.92309433,9.267321236,0.0
1.595922208,-2.361638947,-0.7295828247,9.025331726,9.357683601,0.0
1.605864208,-2.298619995,-0.9857002258,9.683213654,10.00099422,0.0
1.615805208,-2.20910614,-1.043779449,11.11154343,11.37699533,0.0
1.625746208,-1.847757568,-0.7825726318,11.76104279,11.93099976,0.0
1.635687208,-2.097737732,0.04550537109,11.21692429,11.4114839,0.0
1.645628208,-2.208208008,0.2472857666,10.3262764,10.56263779,0.0
1.655570208,-1.758094025,-0.1664538574,10.18257523,10.33457497,0.0
1.665511208,-0.8402027893,-0.4858895874,11.22306152,11.26495181,0.0
1.675452208,0.9086105347,-0.6599775696,12.54960297,12.59974913,0.0
1.685393208,2.388433228,-0.9496252441,12.47775238,12.73972943,0.0
1.695334208,2.920726318,-1.12446167,12.49825974,12.88415898,0.0
1.705276208,2.731819153,-0.8384065247,12.40245895,12.72740152,0.0
1.715217208,2.281106415,-0.2817141724,12.5584346,12.76703133,0.0
1.725158208,1.895957336,0.2354603577,12.79958313,12.94138416,0.0
1.735099208,1.597478027,0.5918692017,13.17111053,13.28082821,0.0
1.745040208,1.459015961,0.8024812317,13.39998459,13.50304746,0.0
1.754981208,1.083297272,0.7783813477,12.22313187,12.29570507,0.0
1.764923208,0.2371069336,0.6409671021,10.69885162,10.72065691,0.0
1.774864208,-0.7328759766,0.6310876465,9.096583557,9.147852821,0.0
1.784805208,-1.60421402,0.9051676941,7.729476471,7.945919562,0.0
1.794746208,-2.003583527,1.304986267,7.521858215,7.892761691,0.0
1.804687208,-1.61469223,1.246907043,8.164022827,8.415062501,0.0
1.814629208,-0.8960366821,1.053658905,8.874744873,8.981880393,0.0
1.824570208,-0.4743635559,0.8051756287,9.13954422,9.187197458,0.0
1.834511208,-0.4963677979,0.7942483521,9.264833679,9.31205426,0.0
1.844452208,-0.5120851135,0.9032217407,9.660011902,9.715650808,0.0
1.854393208,-0.2984793091,0.9725276184,10.19410126,10.24473525,0.0
1.864334208,0.05403762817,1.074465637,10.77279785,10.82638305,0.0
1.874276208,0.3270698547,0.8659492493,11.33038834,11.36813717,0.0
1.884217208,0.606688385,0.5388793945,11.41690842,11.44570922,0.0
1.894158208,0.9472302246,0.3650907898,11.10480743,11.15111136,0.0
1.904099208,1.366358643,0.4936734009,10.57910065,10.67839032,0.0
1.914040208,2.018103333,1.055604858,10.65214874,10.89290207,0.0
1.923982208,2.894231415,1.740879822,11.36915771,11.86022703,0.0
1.933923208,3.204536133,2.358345795,12.06311462,12.7023455,0.0
1.943864208,2.985990601,2.861748962,12.02674026,12.71802769,0.0
1.953805208,2.742297363,3.037184143,11.00750977,11.74350687,0.0
1.963746208,2.349065094,2.938688965,9.977651367,10.66337313,0.0
1.973687208,2.041305084,2.676284637,9.016051025,9.62385588,0.0
1.983629208,1.855092316,2.287243652,8.445437622,8.944175068,0.0
1.993570208,2.081122284,1.820065155,8.220156097,8.672639356,0.0
2.003511208,2.489622803,1.447190552,8.186027069,8.67776592,0.0
2.013452208,2.939736786,1.304836578,8.59542572,9.177472102,0.0
2.023393208,3.350632324,1.550026703,9.249415741,9.958966377,0.0
2.033335208,3.496429138,2.141895905,10.37043457,11.15162087,0.0
2.043276208,3.613336029,2.788700867,10.83162552,11.75402744,0.0
2.053217208,3.378175049,3.430117035,10.54512131,11.59212461,0.0
2.063158208,2.877166901,4.064797211,10.29618896,11.43731494,0.0
2.073099208,2.716700592,4.20056488,9.954000549,11.14034714,0.0
2.083040208,2.769241333,3.775748291,9.402996368,10.50434736,0.0
2.092982208,3.312910767,3.26800415,9.194030914,10.30463164,0.0
2.102923208,4.202211456,2.870730286,9.315129089,10.61467397,0.0
2.112864208,4.426594849,2.723436584,9.176367645,10.54597421,0.0
2.122805208,3.954326935,2.96263916,8.938661957,10.21340344,0.0
2.132746208,3.521726532,3.474424896,8.793912964,10.08995002,0.0
2.142688208,3.447630615,3.803889771,8.716224518,10.11574536,0.0
2.152629208,3.615731049,3.838617554,8.509354706,10.01087475,0.0
2.162570208,3.991749115,3.799997864,8.141868896,9.831788947,0.0
2.172511208,4.470453644,3.870351563,7.695946198,9.705264802,0.0
2.182452208,4.783901825,4.016747131,7.333699493,9.633437727,0.0
2.192393208,4.85230957,4.073778534,7.038663025,9.470129719,0.0
2.202335208,4.847519531,3.967499542,6.868616638,9.296095565,0.0
2.212276208,4.804558868,3.788322144,6.680457916,9.058901068,0.0
2.222217208,4.629273376,3.695066071,6.676116943,8.924921439,0.0
2.232158208,4.057761841,3.382516022,7.075187073,8.829785836,0.0
2.242099208,3.395389252,3.534899139,7.844886475,9.2502121,0.0
2.252040208,4.206103363,3.923191681,8.152646484,9.977393606,0.0
2.261982208,4.919370117,3.839515686,7.951614532,10.10793039,0.0
2.271923208,5.420827332,3.807182922,7.672894135,10.13673099,0.0
2.281864208,5.485043793,3.86361557,7.353458405,9.954224289,0.0
2.291805208,5.147645416,3.904181213,7.095694427,9.596341161,0.0
2.301746208,5.013973389,3.899540863,6.975195007,9.433964886,0.0
2.311688208,5.180576935,3.85538269,6.978188782,9.507758502,0.0
2.321629208,5.412744141,3.968996429,6.936725006,9.6524031,0.0
2.331570208,5.580395508,4.244273987,6.73269928,9.720283704,0.0
2.341511208,5.787864075,4.269122314,6.542295227,9.722468962,0.0
2.351452208,5.809868317,3.958967285,6.424340515,9.523662262,0.0
2.361393208,5.769152985,3.613485718,6.336173859,9.299865825,0.0
2.371335208,5.964496765,3.519032135,6.249953156,9.328489871,0.0
2.381276208,6.091881866,3.665727081,6.250102844,9.466380791,0.0
2.391217208,6.147117004,3.81212265,6.306086426,9.596147799,0.0
2.401158208,6.311026154,3.942800903,6.310128021,9.756661607,0.0
2.411099208,6.824608154,4.220623169,6.460714874,10.30193055,0.0
2.421041208,7.253765717,4.431833954,6.753805389,10.85689442,0.0
2.430982208,7.194638672,4.364024963,6.982978821,10.93478544,0.0
2.440923208,6.894961853,4.256698151,7.029382324,10.72717083,0.0
2.450864208,6.79467041,4.018244019,6.740632782,10.38026788,0.0
2.460805208,6.570287018,3.770958252,6.24710907,9.819122637,0.0
2.470746208,6.37000351,3.535797272,5.793252869,9.308092493,0.0
2.480688208,6.399043121,3.384461975,5.486241302,9.083015984,0.0
2.490629208,6.409221954,3.513942719,5.157375183,8.945637946,0.0
2.500570208,6.197262726,3.902684326,4.809797974,8.761915703,0.0
2.510507583,5.919290771,4.193828888,4.54814209,8.562231044,0.0
2.520448583,5.956413574,4.240980835,4.464017029,8.56692647,0.0
2.530389583,6.056255951,4.109105072,4.533322906,8.60894867,0.0
2.540331583,5.981112213,3.918701019,4.907544708,8.672595693,0.0
2.550272583,6.078110504,3.752396851,6.208190002,9.463906832,0.0
2.560213583,6.223308563,3.939358063,5.986051941,9.491097369,0.0
2.570154583,6.08559494,4.316573639,4.8559021,8.90208172,0.0
2.580095583,6.13125,4.468956757,4.563560028,8.853806028,0.0
2.590037583,5.712870026,4.283492432,4.123774567,8.245647823,0.0
2.599978583,5.196893005,4.165238342,3.914360046,7.725226335,0.0
2.609919583,4.799619141,4.122577057,3.864513702,7.413936312,0.0
2.619860583,4.838388519,3.988605652,3.806733856,7.335543685,0.0
2.629801583,5.019062805,3.939358063,3.507805481,7.281087328,0.0
2.639742583,5.107828217,4.112248535,3.239263916,7.313913304,0.0
2.649684583,5.168751526,4.302203522,3.329675903,7.50411148,0.0
2.659625583,5.227429504,4.459825745,3.698059845,7.803314136,0.0
2.669566583,5.408253479,4.772675171,4.260889435,8.377518293,0.0
2.679507583,5.673950958,5.042114868,4.808450775,8.98542379,0.0
2.689448583,5.830225983,5.0629216,5.245092773,9.334650949,0.0
2.699390583,5.914201355,4.936883698,5.548362122,9.493941254,0.0
2.709331583,5.7357724,4.758005676,5.651647339,9.353011316,0.0
2.719272583,5.542374573,4.500391388,5.694608002,9.132359982,0.0
2.729213583,5.515280914,4.227359161,5.804928589,9.054616776,0.0
2.739154583,5.613027649,3.960464172,6.071823578,9.168336676,0.0
2.749095583,5.672304382,3.866309967,6.450386353,9.419706676,0.0
2.759037583,5.71002594,4.028123474,6.683601379,9.669576121,0.0
2.768978583,5.584137726,3.756737823,6.45891861,9.328092132,0.0
2.778919583,5.940995636,3.83322876,6.458768921,9.57626064,0.0
2.788860583,6.464307404,4.13619873,6.770570526,10.23406251,0.0
2.798801583,6.413562927,3.718118134,6.857988739,10.09901982,0.0
2.808743583,6.352190552,3.092269592,6.885531464,9.865241993,0.0
2.818684583,6.678362274,3.027604065,6.985074463,10.12710098,0.0
2.828625583,6.789131927,3.289709015,7.122937775,10.37548747,0.0
2.838566583,6.737189941,3.400179291,7.34342926,10.5298101,0.0
2.848507583,6.726711731,3.288062439,7.496560822,10.59520785,0.0
2.858448583,6.804849243,3.049757996,7.523355103,10.59282158,0.0
2.868390583,6.776408386,2.853516083,7.547604675,10.53701101,0.0
2.878331583,6.968309326,2.81399826,7.807913361,10.83694755,0.0
2.888272583,7.532336426,2.968177643,8.186775513,11.51388135,0.0
2.898213583,7.525750122,3.189866638,8.170609131,11.55729283,0.0
2.908154583,6.813680878,3.2235466,7.539970551,10.66155034,0.0
2.918095583,6.232888641,3.126548309,6.854994965,9.778300523,0.0
2.928037583,6.023174744,2.935994568,6.27629837,9.180992285,0.0
2.937978583,5.939049683,2.798131256,5.66556839,8.67182304,0.0
2.947919583,5.761967926,2.738106079,5.310806122,8.300732555,0.0
2.957860583,5.782175903,2.697690125,5.219496002,8.243435491,0.0
2.967801583,5.782924347,2.587968292,5.24194931,8.223005926,0.0
2.977742583,5.622907104,2.395618286,5.536237335,8.24657475,0.0
2.987684583,6.021677856,2.098186798,5.950426025,8.721843952,0.0
2.997625583,6.653663635,1.892963562,6.538103943,9.518474352,0.0
3.007566583,7.009922791,1.853894806,7.202422485,10.22011904,0.0
3.017507583,7.377857666,1.951791229,7.759563904,10.88361634,0.0
3.027448583,7.796686707,2.104024658,8.033943329,11.39120225,0.0
3.037389583,8.05130722,2.248623962,8.170609131,11.68925623,0.0
3.047331583,7.884853363,2.394271088,8.153993683,11.5927158,0.0
3.057272583,7.683222656,2.548300781,7.919730835,11.32465822,0.0
3.067213583,7.525899811,2.624192963,7.527995453,10.96340605,0.0
3.077154583,7.488178253,2.631228333,7.151827698,10.68385771,0.0
3.087095583,7.597451019,2.633174286,7.034771118,10.68376682,0.0
3.097037583,7.62544281,2.739602966,7.068600769,10.75257733,0.0
3.106978583,7.503446503,2.907553711,7.067103882,10.70978689,0.0
3.116919583,7.430398407,2.963537292,7.022346954,10.64456343,0.0
3.126860583,7.609276428,2.915786591,7.006330261,10.7467001,0.0
3.136801583,7.889344025,2.946772156,7.137008514,11.03911708,0.0
3.146742583,7.91793457,3.198099518,7.223079529,11.18456107,0.0
3.156684583,7.792046356,3.441643066,7.211553497,11.16097654,0.0
3.166625583,7.680827637,3.5009198,7.082821198,11.01897948,0.0
3.176566583,7.622449036,3.447480927,6.801256714,10.78164862,0.0
3.186507583,7.471413116,3.38625824,6.609655151,10.53452894,0.0
3.196448583,7.255861359,3.396137695,6.446943512,10.28320747,0.0
3.206389583,7.193291473,3.44358902,6.277196503,10.14913511,0.0
3.216331583,7.129524078,3.484454041,6.238726501,10.09421824,0.0
3.226272583,7.257058868,3.504662018,6.4179039,10.30228372,0.0
3.236213583,7.564070435,3.598217468,6.735693054,10.74857625,0.0
3.246154583,7.712112579,3.8366716,6.888824615,11.02962529,0.0
3.256095583,7.725883942,4.02977005,6.865622864,11.09347135,0.0
3.266036583,7.64654892,4.008214874,6.767876129,10.96994276,0.0
3.275978583,7.670798492,3.827540588,6.626420288,10.83515862,0.0
3.285919583,7.619155884,3.678600311,6.483317871,10.65912976,0.0
3.295860583,7.548502808,3.628005524,6.314019928,10.48852546,0.0
3.305801583,7.475155334,3.628753967,6.053112488,10.28036835,0.0
3.315742583,7.562872925,3.581302643,5.806425476,10.18515352,0.0
3.325683583,7.763156433,3.561094666,5.700296173,10.26846481,0.0
3.335625583,7.900271301,3.632496185,5.718408508,10.40718555,0.0
3.345566583,8.076604614,3.668720856,5.802234192,10.59985738,0.0
3.355507583,8.521629181,3.612288208,6.006559296,11.03383635,0.0
3.365448583,9.183552704,3.47517334,6.402635651,11.72212495,0.0
3.375389583,9.635462952,3.301534424,7.111561432,12.42242254,0.0
3.385330583,9.847721558,3.12759613,7.904013519,13.00895488,0.0
3.395272583,9.798623657,2.882256317,8.116272125,13.04585376,0.0
3.405213583,9.494605865,2.728376312,7.83605484,12.60933516,0.0
3.415154583,9.444160767,2.763403473,7.087611237,12.12694539,0.0
3.425095583,9.551038513,2.944826202,6.395749969,11.86591571,0.0
3.435036583,9.77602066,3.118016052,6.049669647,11.91180536,0.0
3.444978583,10.38405624,3.25513092,5.985752563,12.41989272,0.0
3.454919583,10.79001205,3.442690887,6.170169067,12.89757601,0.0
3.464860583,10.81560883,3.678600311,6.188131714,12.99240042,0.0
3.474801583,10.84165466,3.824546814,5.925577698,12.9337197,0.0
3.484742583,10.92997101,4.111949158,5.669909363,12.98153551,0.0
3.494683583,10.75303894,4.471202087,5.606141968,12.92471749,0.0
3.504625583,10.52700897,4.651427307,5.675597534,12.83222901,0.0
3.514566208,10.38076309,4.541705475,5.784421234,12.72190473,0.0
3.524507208,10.05803421,4.338577881,5.861061859,12.42333918,0.0
3.534448208,9.610914001,4.077221375,5.817502441,11.95143241,0.0
3.544389208,9.250613251,3.745361481,5.735023956,11.51052031,0.0
3.554330208,8.88327713,3.466042328,5.552403717,11.0342761,0.0
3.564272208,8.458759918,3.239114227,5.307662659,10.4982743,0.0
3.574213208,7.994575195,2.917582855,5.115462341,9.929424819,0.0
3.584154208,7.552993469,2.585573273,4.946463776,9.391506981,0.0
3.594095208,7.233108673,2.259700928,4.760550385,8.949131205,0.0
3.604036208,7.12697937,1.854493561,4.712051239,8.742791785,0.0
3.613977208,7.07428894,1.540746002,4.853656769,8.716504247,0.0
3.623919208,7.171137543,1.395997009,5.124892731,8.924043187,0.0
3.633860208,7.304510193,1.418450317,5.425916748,9.209149962,0.0
3.643801208,7.209457855,1.519639893,5.477709045,9.181006718,0.0
3.653742208,7.151827698,1.597777405,5.178930359,8.973452608,0.0
3.663683208,7.14569046,1.661395111,4.777764587,8.754893507,0.0
3.673624208,7.01815567,1.773362274,4.413122864,8.477911074,0.0
3.683566208,6.856641541,1.941462708,4.201912079,8.272779205,0.0
3.693507208,6.920558624,2.04759201,4.177961884,8.33919242,0.0
3.703448208,6.975045319,2.308649139,4.402944031,8.565455865,0.0
3.713389208,6.894363098,2.566562805,4.653972015,8.705110148,0.0
3.723330208,6.794520721,2.690954132,4.705764313,8.692005738,0.0
3.733271208,6.630312195,2.646945648,4.724026337,8.56059495,0.0
3.743213208,6.383774872,2.455344086,4.850662994,8.385119419,0.0
3.753154208,6.221512299,2.380948792,5.02669693,8.345286961,0.0
3.763095208,6.09846817,2.520009613,5.120851135,8.352537269,0.0
3.773036208,5.906866608,2.680176544,5.179379425,8.30062592,0.0
3.782977208,5.925577698,2.777324524,5.19285141,8.354143183,0.0
3.792918208,5.816304932,2.996917877,5.271437988,8.402319816,0.0
3.802860208,5.611081696,3.199297028,5.330265656,8.374453488,0.0
3.812801208,5.52396286,3.321143646,5.321883087,8.358624312,0.0
3.822742208,5.337151337,3.340752869,5.17533783,8.150456169,0.0
3.832683208,5.038522339,3.309318237,4.975054321,7.815974671,0.0
3.842624208,4.861141205,3.230282593,4.880600739,7.608264126,0.0
3.852565208,4.890629883,3.205284576,5.128634949,7.777853579,0.0
3.862507208,4.851561127,3.291954346,5.427713013,7.989660652,0.0
3.872448208,4.882846069,3.345991974,5.584586792,8.137902535,0.0
3.882389208,4.942571869,3.34883606,5.632187805,8.207634197,0.0
3.892330208,4.989424438,3.325634308,5.769003296,8.32079316,0.0
3.902271208,5.08866806,3.324736176,6.057752838,8.581653845,0.0
3.912212208,5.259163513,3.422033844,6.339017944,8.919207643,0.0
3.922154208,5.387895813,3.574267273,6.355783081,9.066464934,0.0
3.932095208,5.465135193,3.608845367,6.26342514,9.062116864,0.0
3.942036208,5.534291382,3.630849609,6.023324432,8.949407087,0.0
3.951977208,5.491031342,3.684438171,5.802533569,8.797494283,0.0
3.961918208,5.478457489,3.676953735,5.667664032,8.698040056,0.0
3.971859208,5.599855042,3.67635498,5.613027649,8.739567599,0.0
3.981801208,5.81181427,3.764970703,5.781277771,9.02082935,0.0
3.991742208,5.941444702,3.889811096,6.07511673,9.345503667,0.0
4.001683208,6.05281311,3.972139893,6.255491638,9.567947403,0.0
4.011624208,6.16986969,3.999832306,6.284231873,9.67251367,0.0
4.021565208,6.339317322,4.041894836,6.274651794,9.792605022,0.0
4.031506208,6.505172424,4.077820129,6.495442657,10.05667244,0.0
4.041448208,6.574029236,4.087549896,6.708300018,10.24339854,0.0
4.051389208,6.686295776,4.086202698,6.702013092,10.31118728,0.0
4.061330208,6.726262665,4.110452271,6.629414062,10.29988146,0.0
4.071271208,6.711293793,4.234244843,6.510112152,10.26410512,0.0
4.081212208,6.7244664,4.32226181,6.454278259,10.27414733,0.0
4.091153208,6.843019867,4.353696442,6.524931335,10.4094343,0.0
4.101094208,7.092550964,4.430786133,6.749464417,10.74669321,0.0
4.111036208,7.160509644,4.555327148,6.917415161,10.94872304,0.0
4.120977208,7.163503418,4.658013611,6.901997223,10.98409931,0.0
4.130918208,7.203320618,4.707111511,6.764133911,10.94523797,0.0
4.140859208,7.257208557,4.776866455,6.572682037,10.89429568,0.0
4.150800208,7.299121399,4.861141205,6.408473511,10.86169415,0.0
4.160741208,7.247628479,4.902904358,6.289620667,10.77617362,0.0
4.170683208,7.199279022,4.891378326,6.174959106,10.67170653,0.0
4.180624208,7.103927307,4.873565369,6.115382996,10.56481575,0.0
4.190565208,6.981931,4.872966614,6.105054474,10.47687235,0.0
4.200506208,6.985673218,4.850513306,6.216871948,10.53454349,0.0
4.210447208,7.204368439,4.855003967,6.586303711,10.90198994,0.0
4.220388208,7.337741089,4.929998016,7.025041351,11.29152473,0.0
4.230330208,7.447163544,4.961881714,7.260501709,11.52368865,0.0
4.240271208,7.562723236,4.975952454,7.272327118,11.61213276,0.0
4.250212208,7.667804718,5.004393311,7.232958984,11.66854221,0.0
4.260153208,7.81614624,5.11800705,7.072492676,11.7177767,0.0
4.270094208,7.922574921,5.204976196,6.735393677,11.62860691,0.0
4.280035208,7.874375153,5.225483551,6.323300629,11.37082201,0.0
4.289977208,7.693401489,5.184768219,5.834716644,10.95966087,0.0
4.299918208,7.463180237,5.103636932,5.366640015,10.51413307,0.0
4.309859208,7.477550354,4.967270508,5.046156464,10.29811782,0.0
4.319800208,7.48742981,4.892575836,5.02549942,10.25936391,0.0
4.329741208,7.389982452,4.823269958,5.342689819,10.31601223,0.0
4.339682208,7.290738831,4.697381744,5.662873993,10.35801187,0.0
4.349624208,7.189549255,4.568799133,5.76855423,10.28784535,0.0
4.359565208,7.092101898,4.493356018,5.78846283,10.19776738,0.0
4.369506208,7.011868744,4.470303955,5.74041275,10.10456626,0.0
4.379447208,6.968459015,4.489314423,5.534890137,9.967365442,0.0
4.389388208,6.941814423,4.607119446,5.147495728,9.793418674,0.0
4.399329208,6.873855743,4.814737701,4.662953339,9.600766936,0.0
4.409271208,6.75844574,4.939578094,4.224964142,9.376904743,0.0
4.419212208,6.663094025,4.9249086,4.003125458,9.201986749,0.0
4.429153208,6.568041687,4.861590271,3.973187714,9.086278236,0.0
4.439094208,6.45068573,4.812192993,4.021986237,8.99693954,0.0
4.449035208,6.446793823,4.691693573,4.085753632,8.95915855,0.0
4.458976208,6.48227005,4.524640961,4.20415741,8.953610465,0.0
4.468917208,6.444249115,4.44515625,4.371060333,8.966266178,0.0
4.478859208,6.411766663,4.41821228,4.484374695,8.985597804,0.0
4.488800208,6.46116394,4.481231232,4.430636444,9.025442489,0.0
4.498741208,6.483766937,4.661905518,4.225263519,9.034680324,0.0
4.508682125,6.479425964,4.861290894,4.019740906,9.042866079,0.0
4.518623125,6.388265533,5.019511871,3.711681519,8.932077902,0.0
4.528565125,6.365512848,5.132975922,3.398233337,8.855234918,0.0
4.538506125,6.322402496,5.171595612,3.16741333,8.76074664,0.0
4.548447125,6.29156662,5.155728607,3.069516907,8.694094665,0.0
4.558388125,6.302344208,5.059927826,3.090473328,8.652943864,0.0
4.568329125,6.350244598,4.820276184,3.254532166,8.611193214,0.0
4.578270125,6.431076508,4.587360535,3.517684937,8.647353875,0.0
4.588211125,6.566395111,4.49200882,3.904929657,8.86251452,0.0
4.598153125,6.543492737,4.499942322,4.282743988,9.022675555,0.0
4.608094125,6.547085266,4.437821503,4.531676331,9.115628093,0.0
4.618035125,6.525679779,4.297114105,4.611011353,9.072547156,0.0
4.627976125,6.44484787,4.218228149,4.563410339,8.952889294,0.0
4.637917125,6.401737518,4.279600525,4.462969208,8.900298762,0.0
4.647858125,6.384673004,4.425696716,4.308340759,8.883278724,0.0
4.657800125,6.461014252,4.514462128,4.185296631,8.924224412,0.0
4.667741125,6.544839935,4.512665863,4.230352936,9.005274506,0.0
4.677682125,6.650520172,4.531975708,4.370611267,9.158081962,0.0
4.687623125,6.75964325,4.584217072,4.630620575,9.388848168,0.0
4.697564125,6.90588913,4.568350067,4.89676712,9.619742992,0.0
4.707505125,7.238347778,4.586462402,5.118905182,9.981608397,0.0
4.717446125,7.643854523,4.714146881,5.324427795,10.44036513,0.0
4.727388125,8.148604889,4.924758911,5.509293365,11.00024206,0.0
4.737329125,8.723708954,5.074896698,5.662724304,11.57255896,0.0
4.747270125,9.248667297,5.101990356,5.76735672,12.03455674,0.0
4.757211125,9.604627075,4.944068756,5.655838623,12.19348956,0.0
4.767152125,9.693242798,4.630321198,5.316793671,11.98612219,0.0
4.777093125,9.496701508,4.199367371,4.929848328,11.49458265,0.0
4.787035125,9.232351227,3.756737823,4.624932404,10.98814761,0.0
4.796976125,9.211245117,3.347039795,4.441414032,10.75991964,0.0
4.806917125,9.314829712,3.146456909,4.674928436,10.88674421,0.0
4.816858125,9.164991302,3.329675903,5.097050629,11.00289654,0.0
4.826799125,8.922345886,3.51259552,5.265749817,10.93959344,0.0
4.836740125,8.713829498,3.469934235,5.256319427,10.75175158,0.0
4.846682125,8.587192841,3.347189484,5.269192657,10.61640003,0.0
4.856623125,8.301437073,3.308719482,5.200485535,10.33956149,0.0
4.866564125,7.768694916,3.334915009,4.90380249,9.773513067,0.0
4.876505125,7.274273071,3.326382751,4.452041931,9.15426394,0.0
4.886446125,6.843618622,3.288810883,3.938310242,8.553460143,0.0
4.896387125,6.491999817,3.358865204,3.484304352,8.09743255,0.0
4.906328125,6.283483429,3.449277191,3.185375977,7.843870043,0.0
4.916270125,6.212680664,3.459306335,3.050057373,7.737380134,0.0
4.926211125,6.455475769,3.521427155,3.031346283,7.95378381,0.0
4.936152125,6.620133362,3.752546539,3.020269318,8.187172773,0.0
4.946093125,6.699318695,4.037853241,3.034190369,8.389960725,0.0
4.956034125,6.941664734,4.175417175,3.127745819,8.683525308,0.0
4.965975125,7.176526337,4.291575623,3.330574036,9.000715249,0.0
4.975917125,7.308252411,4.373455353,3.438798981,9.184933503,0.0
4.985858125,7.448361053,4.413122864,3.520529022,9.346007725,0.0
4.995799125,7.542814636,4.378245392,3.570974121,9.424167948,0.0
5.005740125,7.58218277,4.344116364,3.589385834,9.446932476,0.0
5.015681125,7.621700592,4.385879517,3.58040451,9.49450133,0.0
5.025622125,7.702831879,4.47210022,3.61318634,9.611889245,0.0
5.035564125,7.871830444,4.597539368,3.727548523,9.848741076,0.0
5.045505125,8.224048004,4.73300766,3.860771484,10.24411458,0.0
5.055446125,8.449329529,4.908742218,4.020339661,10.56645876,0.0
5.065387125,8.564290466,5.041067047,4.204456787,10.79059243,0.0
5.075328125,8.637488251,5.071902924,4.337380371,10.91527696,0.0
5.085269125,8.639284515,5.073998566,4.418511658,10.95015724,0.0
5.095210125,8.643026733,4.975353699,4.480033722,10.93282935,0.0
5.105152125,8.61413681,4.833448792,4.615202637,10.90255363,0.0
5.115093125,8.621770935,4.72836731,4.658462677,10.88088535,0.0
5.125034125,8.596174164,4.709356842,4.655169525,10.850938,0.0
5.134975125,8.497080231,4.666545868,4.596341858,10.72862439,0.0
5.144916125,8.438551941,4.64873291,4.465214539,10.61875781,0.0
5.154857125,8.299491119,4.614603882,4.392615509,10.46284822,0.0
5.164799125,8.082442474,4.675976257,4.423152008,10.33222648,0.0
5.174740125,7.856711884,4.777614899,4.391268311,10.19003254,0.0
5.184681125,7.777975616,4.797074432,4.374503174,10.1313921,0.0
5.194622125,7.745493164,4.804708557,4.266876984,10.06400158,0.0
5.204563125,7.965535583,4.877157898,4.108955383,10.20391791,0.0
5.214504125,8.451874237,4.924160156,4.132456512,10.61879128,0.0
5.224446125,9.132359161,4.982688446,4.669988708,11.4033312,0.0
5.234387125,9.76314743,5.145250397,5.562133484,12.35839708,0.0
5.244328125,10.36669235,5.339246979,6.515800323,13.35782626,0.0
5.254269125,10.91111023,5.35197052,7.28969101,14.17164457,0.0
5.264210125,11.0959758,5.169350281,7.732170868,14.47858168,0.0
5.274151125,10.94104797,4.884342957,7.719597015,14.25326331,0.0
5.284092125,10.54003189,4.4405159,7.327562256,13.58321105,0.0
5.294034125,9.980196075,4.054019623,6.747967529,12.71119407,0.0
5.303975125,9.221274261,3.786076813,6.009104004,11.63939893,0.0
5.313916125,8.388555908,3.504961395,5.217999115,10.48237279,0.0
5.323857125,7.778424683,3.205434265,4.413721619,9.500507244,0.0
5.333798125,7.247628479,2.934347992,3.692970428,8.647343366,0.0
5.343739125,6.785988464,2.749033356,3.18148407,7.983023532,0.0
5.353681125,6.476731567,2.615361328,2.802621918,7.526144849,0.0
5.363622125,6.341712341,2.474953308,2.557581482,7.27213396,0.0
5.373563125,6.340963898,2.355801086,2.521955566,7.219271555,0.0
5.383504125,6.38631958,2.326462097,2.709814911,7.317144287,0.0
5.393445125,6.455475769,2.413730621,3.240311737,7.615699775,0.0
5.403386125,6.577322388,2.530038757,3.923041992,8.065514514,0.0
5.413327125,6.757547607,2.587369537,4.523443451,8.533491164,0.0
5.423269125,6.905140686,2.666405182,4.983736267,8.92346971,0.0
5.433210125,7.13401474,2.836451569,5.248086548,9.29957183,0.0
5.443151125,7.514822845,3.091221771,5.213807831,9.65463653,0.0
5.453092125,7.756719818,3.383264465,5.050198059,9.854830349,0.0
5.463033125,7.962541809,3.53250412,4.8651828,9.97750776,0.0
5.472974125,8.180338898,3.599265289,4.73300766,10.11306168,0.0
5.482915125,8.375832367,3.711082764,4.703219604,10.29791133,0.0
5.492857125,8.506660309,3.855981445,4.641248474,10.42943191,0.0
5.502798125,8.576864319,4.030817871,4.579576721,10.52533217,0.0
5.512739333,8.565487976,4.148772583,4.558320923,10.5526389,0.0
5.522680333,8.48779953,4.195026398,4.491559753,10.47926984,0.0
5.532621333,8.291407928,4.201163635,4.404590607,10.28579796,0.0
5.542562333,8.035440216,4.15969986,4.271217957,10.00573362,0.0
5.552504333,7.841593323,4.077969818,4.13036087,9.756039391,0.0
5.562445333,7.552095337,4.049379272,3.922742615,9.42441118,0.0
5.572386333,7.30720459,4.075125732,3.608096924,9.111544988,0.0
5.582327333,7.093149719,4.122876434,3.322490845,8.851543845,0.0
5.592268333,6.900200958,4.199067993,3.103945312,8.653289651,0.0
5.602209333,6.777306519,4.26029068,2.968776398,8.537891638,0.0
5.612150333,6.680158539,4.292324066,2.884351959,8.447961305,0.0
5.622092333,6.583908691,4.313280487,2.879861298,8.381279336,0.0
5.632033333,6.626719666,4.321513367,3.029849396,8.471651472,0.0
5.641974333,6.696923676,4.39830368,3.278033295,8.656752524,0.0
5.651915333,6.677164764,4.459676056,3.483855286,8.752741711,0.0
5.661856333,6.580316162,4.485721893,3.597918091,8.738837239,0.0
5.671797333,6.574627991,4.438869324,3.552712097,8.692011121,0.0
5.681739333,6.560257874,4.40533905,3.422632599,8.611527705,0.0
5.691680333,6.49394577,4.372856598,3.290008392,8.492194164,0.0
5.701621333,6.443800049,4.373305664,3.23177948,8.431652276,0.0
5.711562333,6.48466507,4.481829987,3.218307495,8.514410386,0.0
5.721503333,6.758595428,4.639003143,3.366199951,8.86173033,0.0
5.731444333,7.147636414,4.854554901,3.594774628,9.358301887,0.0
5.741385333,7.586374054,5.061424713,3.879931641,9.910850667,0.0
5.751327333,7.952512665,5.272036743,4.156706085,10.40745092,0.0
5.761268333,8.296347656,5.438041534,4.321213989,10.8201003,0.0
5.771209333,8.472531281,5.531596985,4.532424774,11.08716491,0.0
5.781150333,8.374784546,5.568719788,4.707710266,11.10451225,0.0
5.791091333,8.005502472,5.48773819,4.778213654,10.81825614,0.0
5.801032333,7.699089661,5.170098724,4.767436066,10.42757638,0.0
5.810974333,7.570656738,4.829706573,4.706512756,10.13864741,0.0
5.820915333,7.561376038,4.69199295,4.715943146,10.0712127,0.0
5.830856333,7.614515533,4.729415131,4.712949371,10.12719636,0.0
5.840797333,7.74130188,4.774920502,4.797673187,10.28325282,0.0
5.850738333,7.912994843,4.740342407,4.980143738,10.48275561,0.0
5.860679333,8.15668808,4.700525208,5.192102966,10.75101999,0.0
5.870620333,8.45157486,4.716990967,5.455704803,11.11052817,0.0
5.880562333,8.620274048,4.870571594,5.711971893,11.43058245,0.0
5.890503333,8.832532654,4.906646576,5.924829254,11.7129166,0.0
5.900444333,9.137598267,4.745132446,6.088289337,11.96157394,0.0
5.910385333,9.331594849,4.515210571,6.107150116,12.03175263,0.0
5.920326333,9.355095978,4.384532318,5.931415558,11.91317065,0.0
5.930267333,9.204509125,4.345912628,5.560037842,11.59844669,0.0
5.940208333,8.970395966,4.289779358,5.103487244,11.17657339,0.0
5.950150333,8.663534088,4.20760025,4.627477112,10.68523594,0.0
5.960091333,8.321794739,4.070036316,4.281995544,10.20553522,0.0
5.970032333,8.050858154,3.960015106,3.983965302,9.816823121,0.0
5.979973333,7.756270752,3.896996155,3.761527863,9.460201207,0.0
5.989914333,7.546706543,3.820205841,3.629502411,9.204348976,0.0
5.999855333,7.439529419,3.694916382,3.59103241,9.04955904,0.0
6.009796333,7.428452454,3.542832642,3.694167938,9.021111114,0.0
6.019738333,7.518265686,3.372486877,3.97243927,9.147582217,0.0
6.029679333,7.746241608,3.288661194,4.400998077,9.496753949,0.0
6.039620333,8.004005585,3.285068665,4.827910309,9.907799931,0.0
6.049561333,8.254883881,3.173550568,5.014422455,10.16656105,0.0
6.059502333,8.449479218,2.938988342,5.021757202,10.25911287,0.0
6.069443333,8.502618713,2.723286896,4.911286926,10.18977702,0.0
6.079385333,8.534801788,2.525847473,4.760550385,10.09383906,0.0
6.089326333,8.641230469,2.402054901,4.630171509,10.09352366,0.0
6.099267333,8.672216034,2.362537079,4.485123138,10.04516013,0.0
6.109208333,8.566386108,2.363285522,4.312831421,9.877682131,0.0
6.119149333,8.449030151,2.399959259,4.0450383,9.66996638,0.0
6.129090333,8.209079132,2.41852066,3.800596619,9.363907146,0.0
6.139031333,8.064030762,2.330952759,3.643573151,9.150822815,0.0
6.148973333,7.999215546,2.223925323,3.561843109,9.034379864,0.0
6.158914333,7.947722626,2.219734039,3.590433655,8.999151514,0.0
6.168855333,7.762557678,2.289488983,3.596271515,8.856197283,0.0
6.178796333,7.498057709,2.422262878,3.472179565,8.610705998,0.0
6.188737333,7.265291748,2.46073288,3.275488586,8.340773104,0.0
6.198678333,7.261100464,2.414628754,3.025508423,8.228469674,0.0
6.208619333,7.281308441,2.427052917,2.770139465,8.159761708,0.0
6.218561333,7.332352295,2.488874359,2.608775024,8.170899148,0.0
6.228502333,7.47455658,2.560425568,2.590513,8.314777974,0.0
6.238443333,7.61720993,2.559527435,2.842289429,8.52359531,0.0
6.248384333,7.927215271,2.481389923,3.401526489,8.97599133,0.0
6.258325333,8.366701355,2.450254669,3.973337402,9.580858501,0.0
6.268266333,8.839717712,2.315534821,4.399800568,10.14201931,0.0
6.278207333,9.165590057,2.161056061,4.646038513,10.50066085,0.0
6.288149333,9.332492981,2.197879486,4.707710266,10.68122818,0.0
6.298090333,9.335187378,2.323019257,4.61595108,10.67001154,0.0
6.308031333,9.184151459,2.449356537,4.4006987,10.47445151,0.0
6.317972333,8.970246277,2.550995178,4.134552155,10.20134384,0.0
6.327913333,8.699309692,2.731819153,3.91046814,9.921319775,0.0
6.337854333,8.462502136,2.933599548,3.756588135,9.712461229,0.0
6.347795333,8.515491943,3.014880524,3.712130585,9.766423147,0.0
6.357737333,8.547225952,2.987038422,3.677253113,9.772392771,0.0
6.367678333,8.478518829,2.941383362,3.576811981,9.660776448,0.0
6.377619333,8.460556183,2.954555969,3.472628632,9.610908464,0.0
6.387560333,8.37074295,2.991229706,3.378773804,9.509621712,0.0
6.397501333,8.133336639,2.958447876,3.387306061,9.293945399,0.0
6.407442333,7.833360443,2.824925537,3.527714081,9.043589263,0.0
6.417383333,7.51197876,2.697241058,3.754492493,8.82049591,0.0
6.427325333,7.219936066,2.685715027,3.978127441,8.669835058,0.0
6.437266333,7.0310289,2.768642578,4.169878693,8.63068001,0.0
6.447207333,6.856791229,2.957400055,4.332740021,8.63333291,0.0
6.457148333,6.830296326,3.174598389,4.488865356,8.768177405,0.0
6.467089333,6.970554657,3.32533493,4.733905792,9.058495939,0.0
6.477030333,7.023544464,3.404819641,5.013674011,9.276847564,0.0
6.486971333,7.104376373,3.382965088,5.229824524,9.448157545,0.0
6.496913333,7.236850891,3.340303802,5.323679352,9.584946643,0.0
6.506854333,7.491471405,3.271446991,5.369334412,9.78029965,0.0
6.516795,7.794740753,3.360062714,5.466183014,10.09589826,0.0
6.526736,8.04666687,3.631598053,5.303770752,10.29889976,0.0
6.536677,8.21865921,3.847000122,5.136867828,10.42752033,0.0
6.546618,8.241262207,3.946393433,5.256469116,10.54148431,0.0
6.556559,8.304879913,4.019441528,5.510790253,10.74689489,0.0
6.566501,8.26191925,3.947740631,5.861211548,10.87187963,0.0
6.576442,8.219257965,3.726650391,6.105802917,10.8960981,0.0
6.586383,8.117769012,3.464844818,6.269712067,10.82647739,0.0
6.596324,8.00220932,3.208727417,6.324049072,10.69228144,0.0
6.606265,7.979606323,3.05035675,6.214626617,10.56410798,0.0
6.616206,7.783663788,2.988834686,5.917793884,10.22442366,0.0
6.626147,7.608078918,2.850073242,5.618566132,9.87795868,0.0
6.636089,7.539820862,2.768343201,5.423970795,9.691856473,0.0
6.64603,7.532486115,2.89243515,5.491929474,9.76042097,0.0
6.655971,7.483986969,3.005450134,5.703888702,9.878114081,0.0
6.665912,7.31184494,2.903661804,5.752836914,9.746253683,0.0
6.675853,7.082372131,2.754571838,5.698050842,9.498181111,0.0
6.685794,6.755002899,2.704725494,5.624104614,9.196529611,0.0
6.695735,6.566395111,2.780318298,5.636079712,9.089175381,0.0
6.705677,6.446195068,2.893183594,5.738466797,9.102414149,0.0
6.715618,6.317612457,2.982847137,5.865402832,9.122091569,0.0
6.725559,6.201004944,3.042123871,5.794001312,9.015399668,0.0
6.7355,6.099366302,3.070864105,5.674250336,8.878603072,0.0
6.745441,6.066734161,3.09256897,5.627098389,8.833656236,0.0
6.755382,6.161786499,3.171454926,5.629343719,8.928339707,0.0
6.765323,6.327940979,3.330424347,5.980962524,9.322364297,0.0
6.775265,6.488257599,3.529809723,6.459966431,9.812655585,0.0
6.785206,6.670428772,3.663930817,6.777007141,10.19052672,0.0
6.795147,6.9222052,3.710933075,7.1000354,10.58765563,0.0
6.805088,7.179819489,3.69282074,7.322173462,10.89958518,0.0
6.815029,7.318580933,3.729494476,7.324867859,11.00565514,0.0
6.82497,7.212152252,3.840862885,7.059469757,10.79830918,0.0
6.834911,7.041656799,3.90103775,6.76308609,10.51391266,0.0
6.844853,6.844816132,4.026476898,6.500083008,10.26231471,0.0
6.854794,6.818620605,4.215234375,6.363117828,10.23479635,0.0
6.864735,7.029232635,4.480632477,6.246510315,10.41657669,0.0
6.874676,7.098987579,4.795128479,6.298302612,10.63284993,0.0
6.884617,7.02399353,4.979544983,6.48227005,10.777392,0.0
6.894558,6.997798004,5.012925568,6.686146088,10.89968574,0.0
6.904499,6.806046753,4.997357941,6.794071655,10.83767819,0.0
6.914441,6.577472076,4.870272217,6.762038269,10.61639543,0.0
6.924382,6.344406738,4.752766571,6.673721924,10.36237672,0.0
6.934323,6.231242065,4.759502563,6.567293243,10.22793151,0.0
6.944264,6.225254517,4.826862488,6.533613281,10.23428052,0.0
6.954205,6.146069183,4.927902374,6.573879547,10.26032556,0.0
6.964146,6.054609375,4.95065506,6.638545074,10.258536,0.0
6.974087,6.013444977,4.873565369,6.673422546,10.21996714,0.0
6.984029,6.016139374,4.717889099,6.693331146,10.16135288,0.0
6.99397,6.026018829,4.591551819,6.733447723,10.1358063,0.0
7.003911,6.030958557,4.485272827,6.642287292,10.03045931,0.0
7.013852,6.043831787,4.355193329,6.421197052,9.835008042,0.0
7.023793,6.005361786,4.329147491,6.147266693,9.622617938,0.0
7.033734,5.981561279,4.39022049,5.778283997,9.40434353,0.0
7.043675,5.862708435,4.475243683,5.372328186,9.124750208,0.0
7.053617,5.787864075,4.557123413,5.081183624,8.949031868,0.0
7.063558,5.795498199,4.678221588,4.865332489,8.896348511,0.0
7.073499,5.808970184,4.748275909,4.828509064,8.922149881,0.0
7.08344,5.869294739,4.716691589,4.91203537,8.990210885,0.0
7.093381,5.922733612,4.644841003,5.090464325,9.086591684,0.0
7.103322,5.995033264,4.561763763,5.342689819,9.235499281,0.0
7.113263,6.031856689,4.517455902,5.553900604,9.36143765,0.0
7.123205,6.158643036,4.54230423,5.805078278,9.60522491,0.0
7.133146,6.199508057,4.609963531,6.000422058,9.782163809,0.0
7.143087,6.174659729,4.632267151,6.004014587,9.779187742,0.0
7.153028,6.242169342,4.666845245,5.833070068,9.734928303,0.0
7.162969,6.274801483,4.737198944,5.689967651,9.705149116,0.0
7.17291,6.303092651,4.722679138,5.665119324,9.701868488,0.0
7.182851,6.325995026,4.621639252,5.754333801,9.720602859,0.0
7.192793,6.365961914,4.507576447,5.812862091,9.727953649,0.0
7.202734,6.39215744,4.410129089,5.937552795,9.775655913,0.0
7.212675,6.45188324,4.355193329,6.123316498,9.904014903,0.0
7.222616,6.514453125,4.360582123,6.287674713,10.04926014,0.0
7.232557,6.569089508,4.327800293,6.445446625,10.16988567,0.0
7.242498,6.540498962,4.336631927,6.540049896,10.21551544,0.0
7.252439,6.468498688,4.310137024,6.478078766,10.11851081,0.0
7.26238,6.35353775,4.268373871,6.26462265,9.89100371,0.0
7.272322,6.243217163,4.250111847,5.990093536,9.6396282,0.0
7.282263,6.20609436,4.338577881,5.778583374,9.525276429,0.0
7.292204,6.134842529,4.463268585,5.676495667,9.475213052,0.0
7.302145,6.101162567,4.524042206,5.706732788,9.500417973,0.0
7.312086,6.077661438,4.544549561,5.764812012,9.530160376,0.0
7.322027,6.011349335,4.543651428,5.773793335,9.493038428,0.0
7.331968,5.976022797,4.451742554,5.796845398,9.441095106,0.0
7.34191,5.946833496,4.333787842,5.839656372,9.394047702,0.0
7.351851,5.929020538,4.247866516,5.870941315,9.362991317,0.0
7.361792,5.914051666,4.214036865,5.821993103,9.307508663,0.0
7.371733,5.975873108,4.193230133,5.778283997,9.310360052,0.0
7.381674,6.031407623,4.175566864,5.857169952,9.387208126,0.0
7.391615,6.074368286,4.173620911,6.014343109,9.512590847,0.0
7.401556,6.129154358,4.067341919,6.223458252,9.635415717,0.0
7.411498,6.13948288,3.863465881,6.512507172,9.748454662,0.0
7.421439,6.159541168,3.675157471,6.769373016,9.862613288,0.0
7.43138,6.221063232,3.495531006,6.976991272,9.979918435,0.0
7.441321,6.369704132,3.314257965,7.218738556,10.18172986,0.0
7.451262,6.604715424,3.207829285,7.430997162,10.44663359,0.0
7.461203,6.890171814,3.167712708,7.531737671,10.68812162,0.0
7.471144,7.23116272,3.232078857,7.414980469,10.84979186,0.0
7.481086,7.636070709,3.3920961,7.236850891,11.0538637,0.0
7.491027,8.037835236,3.523822174,7.123835907,11.30367887,0.0
7.500968,8.355175323,3.60390564,7.157515869,11.57700842,0.0
7.510909625,8.582402802,3.559897156,7.086563416,11.6854562,0.0
7.520850625,8.687184906,3.469784546,6.742878113,11.53139157,0.0
7.530791625,8.671766968,3.390748901,6.253994751,11.21646873,0.0
7.540732625,8.661139069,3.344195709,5.74625061,10.91871654,0.0
7.550673625,8.672066345,3.330723724,5.261408844,10.67618276,0.0
7.560615625,8.724307709,3.303480377,4.920417938,10.54689719,0.0
7.570556625,8.690328369,3.353326721,4.768334198,10.46439766,0.0
7.580497625,8.623267822,3.444936218,4.683760071,10.40028566,0.0
7.590438625,8.58614502,3.443289642,4.666096802,10.36101294,0.0
7.600379625,8.460556183,3.370241547,4.631818085,10.21730286,0.0
7.610320625,8.279881897,3.343596954,4.517006836,10.00696935,0.0
7.620261625,8.047265625,3.302133179,4.485123138,9.786669359,0.0
7.630202625,7.91209671,3.32069458,4.699178009,9.783177439,0.0
7.640144625,7.864795074,3.43999649,5.064568176,9.96686652,0.0
7.650085625,7.82901947,3.584296417,5.37307663,10.14941767,0.0
7.660026625,7.82782196,3.693569183,5.561983795,10.28848452,0.0
7.669967625,7.872878265,3.854634247,5.661077728,10.43495177,0.0
7.679908625,7.951464844,4.046235809,5.661526794,10.56648963,0.0
7.689849625,7.93320282,4.232747955,5.560037842,10.57193847,0.0
7.699790625,7.847431183,4.349056091,5.349874878,10.44593827,0.0
7.709732625,7.713609467,4.440366211,5.07579483,10.24599025,0.0
7.719673625,7.533234558,4.498894501,4.72013443,9.963400206,0.0
7.729614625,7.339387665,4.568499756,4.340374146,9.673502418,0.0
7.739555625,7.071295166,4.664300537,4.015998688,9.374815213,0.0
7.749496625,6.768325195,4.744982758,3.708687744,9.059771084,0.0
7.759437625,6.46475647,4.83015564,3.404520264,8.758666448,0.0
7.769378625,6.227350159,4.929698639,3.155587921,8.546318143,0.0
7.779320625,6.067931671,5.053491211,2.982248383,8.441052873,0.0
7.789261625,6.017636261,5.19988678,2.845133514,8.446629707,0.0
7.799202625,6.073021088,5.324876862,2.834505615,8.559808456,0.0
7.809143625,6.257886658,5.452112274,2.940335541,8.805239733,0.0
7.819084625,6.421496429,5.570965118,3.116519165,9.054499459,0.0
7.829025625,6.493496704,5.593717804,3.233575745,9.160305148,0.0
7.838966625,6.511459351,5.51692749,3.318000183,9.15667609,0.0
7.848908625,6.568041687,5.35780838,3.45765976,9.154271858,0.0
7.858849625,6.577472076,5.194198608,3.608845367,9.125053588,0.0
7.868790625,6.646628265,5.088218994,3.73488327,9.16607838,0.0
7.878731625,6.844516754,5.142106934,3.902085571,9.408238152,0.0
7.888672625,7.013665009,5.290149078,4.184398499,9.730691903,0.0
7.898613625,7.158863068,5.388793945,4.43348053,9.997208121,0.0
7.908554625,7.220534821,5.410349121,4.559219055,10.1091285,0.0
7.918495625,7.085216217,5.376070404,4.59723999,10.01184485,0.0
7.928437625,6.791526947,5.253026276,4.545896759,9.715158294,0.0
7.938378625,6.509513397,5.017715607,4.377197571,9.311879142,0.0
7.948319625,6.288273468,4.800666962,4.302802277,9.005714515,0.0
7.958260625,6.14876358,4.680766296,4.489913177,8.937347874,0.0
7.968201625,6.209836578,4.636757812,4.891827393,9.164691407,0.0
7.978142625,6.364015961,4.593048706,5.374723206,9.512331213,0.0
7.988083625,6.608457642,4.59020462,5.866600342,9.957845672,0.0
7.998024625,6.833140411,4.598587189,6.284980316,10.36049176,0.0
8.007966625,6.947352905,4.562063141,6.538103943,10.574731,0.0
8.017907625,6.904541931,4.401447144,6.496939545,10.45254322,0.0
8.027848625,6.757697296,4.21343811,6.212381287,10.10015914,0.0
8.037789625,6.548133087,4.074976044,5.839207306,9.673666246,0.0
8.047730625,6.344406738,3.9853125,5.515430603,9.303450291,0.0
8.057671625,6.169420624,3.916605377,5.32158371,9.039955846,0.0
8.067612625,6.053262177,3.965553589,5.222639465,8.924324133,0.0
8.077554625,5.994733887,4.193080444,5.161566467,8.95324111,0.0
8.087495625,5.886808319,4.470753021,5.144052887,9.005743993,0.0
8.097436625,5.701643372,4.579876099,5.153333588,8.946555163,0.0
8.107377625,5.676495667,4.597988434,4.942871246,8.820208436,0.0
8.117318625,5.827531586,4.692891083,4.672383728,8.821253924,0.0
8.127259625,6.01778595,4.810097351,4.542603607,8.94349103,0.0
8.137200625,6.482719116,4.836442566,4.702321472,9.355674805,0.0
8.147141625,7.28026062,4.947511597,5.286107483,10.26757021,0.0
8.157083625,8.043972473,5.206024017,6.191125488,11.40781373,0.0
8.167024625,8.727900238,5.376070404,7.034771118,12.43247281,0.0
8.176965625,9.060658264,5.481600952,7.588769073,13.02815771,0.0
8.186906625,9.060059509,5.318290558,7.712861023,13.03292438,0.0
8.196847625,8.772058411,4.92835144,7.382797394,12.47971771,0.0
8.206788625,8.293353882,4.532125397,6.867568817,11.68261018,0.0
8.216729625,7.81973877,4.258494415,6.470893707,11.00706839,0.0
8.226671625,7.445516968,4.068539429,6.209237823,10.51396074,0.0
8.236612625,7.086713104,3.942501526,5.812113647,9.977248416,0.0
8.246553625,6.703659668,3.89519989,5.416636047,9.457884605,0.0
8.256494625,6.351142731,3.839515686,5.06995697,8.987956295,0.0
8.266435625,6.007307739,3.825894012,4.885839844,8.636934772,0.0
8.276376625,5.672304382,3.868854675,4.629872131,8.281231156,0.0
8.286317625,5.555696869,3.908821564,4.276906128,8.027239858,0.0
8.296258625,5.761219482,3.959715729,3.913312225,8.011554852,0.0
8.306200625,6.388864288,4.056264954,3.592678986,8.377243852,0.0
8.316141625,7.129973145,4.21927597,3.473227386,8.983435603,0.0
8.326082625,7.90865387,4.264332275,4.040697327,9.851830828,0.0
8.336023625,8.438551941,4.109554138,5.232369232,10.74594258,0.0
8.345964625,8.718170471,3.673211517,6.211632843,11.317392,0.0
8.355905625,8.828191681,2.989882507,6.659202118,11.45518828,0.0
8.365846625,8.881331177,2.410736847,6.657705231,11.35846533,0.0
8.375787625,8.77101059,2.088457031,6.385571136,11.04842967,0.0
8.385729625,8.609945526,1.848356323,5.877228241,10.58722791,0.0
8.395670625,8.487350464,1.715582428,5.182073822,10.09119567,0.0
8.405611625,8.594826965,1.814975739,4.554878082,9.895054413,0.0
8.415552625,8.786578217,2.133663025,4.108955383,9.931766661,0.0
8.425493625,8.971443787,2.554138641,3.859274597,10.09477232,0.0
8.435434625,9.101373596,2.849923553,3.741768951,10.24489631,0.0
8.445375625,9.088799744,2.902464294,3.644171906,10.21325456,0.0
8.455317625,9.089398499,2.778821411,3.818409576,10.24301055,0.0
8.465258625,9.092092896,2.57180191,4.247716827,10.35970157,0.0
8.475199625,9.054820404,2.287393341,4.696184235,10.45352033,0.0
8.485140625,8.857830048,2.078278198,5.004243622,10.3837781,0.0
8.495081625,8.692274323,2.006577301,5.067412262,10.25966142,0.0
8.505022625,8.654253387,2.141746216,4.859943695,10.15392689,0.0
8.514962958,8.681496735,2.428100739,4.53407135,10.09068193,0.0
8.524903958,8.736133118,2.686912537,4.107308807,10.0204544,0.0
8.534845958,8.689729614,2.909349976,3.767216034,9.90795815,0.0
8.544786958,8.662785645,3.095263367,3.565884705,9.866105825,0.0
8.554727958,8.622968445,3.235222321,3.61438385,9.893736346,0.0
8.564668958,8.585246887,3.225492554,3.580703888,9.845390122,0.0
8.574609958,8.554860077,3.035537567,3.433410187,9.705072116,0.0
8.584550958,8.453969879,2.837200012,3.299738159,9.508290201,0.0
8.594491958,8.321794739,2.734663239,3.127895508,9.301310715,0.0
8.604432958,8.204438782,2.627486115,2.946173401,9.104748031,0.0
8.614374958,8.119565277,2.498753815,2.946622467,8.991868264,0.0
8.624315958,8.086783447,2.402953033,3.107537842,8.990386045,0.0
8.634256958,8.022566986,2.356399841,3.302432556,8.990009013,0.0
8.644197958,7.90042099,2.342329102,3.365750885,8.901204214,0.0
8.654138958,7.697742462,2.20790863,3.337310028,8.675698114,0.0
8.664079958,7.553741913,1.916764069,3.335513763,8.476948357,0.0
8.674020958,7.333549805,1.622176666,3.495680695,8.284454924,0.0
8.683961958,7.097490692,1.530567169,3.54417984,8.079493841,0.0
8.693903958,7.151378632,1.581461334,3.506458282,8.120251595,0.0
8.703844958,7.349865875,1.799258423,3.296744385,8.253870776,0.0
8.713785958,7.525301056,2.066003723,2.924917603,8.333886869,0.0
8.723726958,7.550149384,2.306703186,2.350262604,8.237072879,0.0
8.733667958,7.403304749,2.390079803,1.878892822,8.003226906,0.0
8.743608958,7.188800812,2.24892334,1.652264099,7.711451871,0.0
8.753549958,6.855294342,1.973346405,1.488205261,7.287243062,0.0
8.763490958,6.497388611,1.476080475,1.330583038,6.794506866,0.0
8.773432958,6.08559494,0.8641529846,1.25663681,6.273783725,0.0
8.783373958,5.981411591,0.3385958862,1.057850189,6.083664916,0.0
8.793314958,6.194268951,-0.01032852173,0.9285191345,6.26348324,0.0
8.803255958,6.595883789,-0.1683998108,1.172811127,6.70145711,0.0
8.813196958,7.229516144,-0.02799179077,1.418899384,7.367493649,0.0
8.823137958,7.615862732,0.1040336609,2.211052094,7.931011254,0.0
8.833078958,7.298372955,-0.06526428223,3.062481537,7.915131103,0.0
8.843019958,6.484066315,-1.353934479,3.577410736,7.52822171,0.0
8.852961958,6.90469162,-2.008972321,3.719315643,8.09592768,0.0
8.862902958,7.417375488,-2.054777069,3.558999023,8.479743038,0.0
8.872843958,7.090904388,-1.996847534,3.126697998,8.002784859,0.0
8.882784958,7.505542145,-2.492915955,2.216889954,8.21354941,0.0
8.892725958,9.238638153,-2.935994568,1.149609375,9.761869736,0.0
8.902666958,9.939031677,-2.136806488,0.8316705322,10.2000965,0.0
8.912607958,9.261989594,-0.8717871094,1.443448334,9.414244903,0.0
8.922548958,9.754914551,-0.427660675,2.471360779,10.07218326,0.0
8.932490958,11.19911133,-0.8039781189,3.643872528,11.80441792,0.0
8.942431958,12.35710327,-0.7491920471,4.940775604,13.32931182,0.0
8.952372958,12.77263916,0.1338217163,8.157436523,15.1559226,0.0
8.962313958,12.43329483,0.9771679688,9.909692688,15.92933416,0.0
8.972254958,13.32005081,0.9708810425,8.241411896,15.69354114,0.0
8.982195958,13.34220474,0.5915698242,7.233557739,15.18844099,0.0
8.992136958,12.61726227,-0.119002533,7.253466339,14.55411429,0.0
9.002077958,12.07793381,-0.4128414917,7.199279022,14.06685969,0.0
9.012019958,11.41930344,-0.2447410583,6.93163559,13.36068715,0.0
9.021960958,10.9167984,0.08472381592,6.955735474,12.94472562,0.0
9.031901958,10.32582733,0.7087760925,7.849526825,12.99000173,0.0
9.041842958,10.03588028,1.666484528,9.03536087,13.60638856,0.0
9.051783958,9.735455017,2.354902954,9.842183075,14.04255034,0.0
9.061724958,8.691226501,2.026785278,10.02644989,13.42292718,0.0
9.071665958,8.471184082,1.747316437,9.416019287,12.78575354,0.0
9.081606958,8.716673584,1.923350372,9.604477386,13.11204259,0.0
9.091548958,8.103398895,2.121987305,9.54085968,12.69629502,0.0
9.101489958,7.729177094,2.229463806,8.966204681,12.04589199,0.0
9.111430958,7.744894409,2.251767426,8.581953735,11.77725672,0.0
9.121371958,7.364984436,2.414928131,8.314310303,11.36673345,0.0
9.131312958,6.992558899,2.626587982,7.963439941,10.91838908,0.0
9.141253958,6.919361115,2.79064682,7.74249939,10.75228184,0.0
9.151194958,7.11290863,2.887196045,7.643704834,10.83307868,0.0
9.161135958,7.20541626,2.960244141,7.721842346,10.96849662,0.0
9.171077958,7.022646332,2.975362701,7.849227448,10.94443768,0.0
9.181018958,6.888076172,2.972817993,8.01508255,10.97837823,0.0
9.190959958,6.929989014,3.03523819,8.456813965,11.34703138,0.0
9.200900958,7.101981354,3.03868103,8.894054718,11.78031964,0.0
9.210841958,7.176226959,3.041525116,9.264534302,12.10705184,0.0
9.220782958,7.219187622,3.135679321,9.679920502,12.47597754,0.0
9.230723958,7.303612061,3.268453217,9.956844635,12.77357783,0.0
9.240664958,7.325765991,3.345093842,10.024953,12.8590895,0.0
9.250606958,7.1000354,3.342100067,9.686207428,12.46606393,0.0
9.260547958,6.841822357,3.201692047,9.130413208,11.85013968,0.0
9.270488958,6.653963013,2.727927246,8.839717712,11.39549999,0.0
9.280429958,6.480473785,2.071542206,8.994795227,11.27803923,0.0
9.290370958,6.494694214,1.599274292,9.003477173,11.21611931,0.0
9.300311958,6.935677185,1.089135132,8.859177246,11.30375401,0.0
9.310252958,7.685018921,0.4324507141,8.625064087,11.56020155,0.0
9.320193958,6.407126312,1.604962463,8.352480927,10.64852618,0.0
9.330134958,5.225034485,2.832859039,8.097111969,10.04436648,0.0
9.340076958,4.844974823,2.964136047,7.810458069,9.657284235,0.0
9.350017958,5.27353363,2.245330811,7.396419067,9.357279648,0.0
9.359958958,7.603737946,1.651515656,6.267317047,9.991175991,0.0
9.369899958,8.173902283,1.648970947,6.063291321,10.30996049,0.0
9.379840958,4.246070251,2.045795746,6.686146088,8.180399888,0.0
9.389781958,2.251168671,1.724563751,7.869435425,8.364800919,0.0
9.399722958,2.983296204,0.1531315613,9.665550385,10.11663826,0.0
9.409663958,5.204676819,-0.6647676086,9.599238281,10.93965047,0.0
9.419605958,6.35713028,0.03143463135,9.307345276,11.27123638,0.0
9.429546958,5.599555664,1.114731903,9.968819733,11.48803803,0.0
9.439487958,5.346282349,1.065334625,10.93700638,12.22030201,0.0
9.449428958,6.153703308,0.5099894714,11.3640683,12.93329819,0.0
9.459369958,6.907086639,0.4315525818,11.52947433,13.44703915,0.0
9.469310958,7.149432678,0.796942749,11.9971019,13.98856531,0.0
9.479251958,7.610773315,1.196761322,12.35381012,14.55928338,0.0
9.489192958,8.775351563,1.450334015,12.4337439,15.28751945,0.0
9.499134958,9.666298828,1.729054413,12.37356903,15.79658738,0.0
9.509075958,9.974807281,1.944755859,12.22582626,15.89810314,0.0
9.519017208,10.00235001,1.89086792,11.91387497,15.67044364,0.0
9.528958208,9.680668945,1.597478027,11.50896698,15.12361095,0.0
9.538899208,9.234446869,1.209185486,10.95167587,14.37624231,0.0
9.548840208,8.716374207,0.7319778442,9.934990082,13.23688025,0.0
9.558781208,8.168214111,0.374072113,8.638536072,11.8947029,0.0
9.568722208,7.823331299,0.1538800049,7.300318909,10.70153484,0.0
9.578663208,7.603887634,-0.04161346436,6.330934753,9.894522408,0.0
9.588605208,7.43234436,0.06047424316,5.671256561,9.349147063,0.0
9.598546208,7.271129608,0.426612854,4.938081207,8.799771038,0.0
9.608487208,7.080575867,0.6728507996,4.190685425,8.25524846,0.0
9.618428208,6.644083557,0.7285350037,3.581452332,7.58296844,0.0
9.628369208,6.174060974,0.536484375,3.253334656,6.999359312,0.0
9.638310208,5.90896225,0.04460723877,3.315605164,6.775770235,0.0
9.648251208,5.656886444,0.08517288208,3.181783447,6.490867782,0.0
9.658192208,5.100194092,0.09639953613,2.796035614,5.817137423,0.0
9.668134208,4.931794281,0.2381547546,2.684966583,5.62035213,0.0
9.678075208,5.034031677,0.362845459,2.438578949,5.605336658,0.0
9.688016208,4.823269958,0.04490661621,1.783541107,5.142661624,0.0
9.697957208,4.193379822,-0.9047186279,1.167422333,4.445877307,0.0
9.707898208,3.823498993,-1.080902252,1.000818787,4.097454389,0.0
9.717839208,3.672163696,-0.9729766846,0.9243278503,3.909712498,0.0
9.727780208,3.759282532,-0.8342152405,0.674197998,3.90930469,0.0
9.737721208,3.739074554,-0.7252418518,0.4041595459,3.830143497,0.0
9.747662208,3.729344788,-0.8354127502,0.2838098145,3.832293702,0.0
9.757604208,3.820505219,-0.9008267212,0.2204914856,3.931458432,0.0
9.767545208,3.892206116,-0.9782157898,0.1710942078,4.016895294,0.0
9.777486208,3.922443237,-1.241218872,0.0643661499,4.114648009,0.0
9.787427208,3.880231018,-1.742526398,-0.08008346558,4.254292463,0.0
9.797368208,3.960314484,-2.358794861,-0.3263214111,4.621091826,0.0
9.807309208,4.169729004,-2.88539978,-0.7806266785,5.130453184,0.0
9.817250208,4.245172119,-3.463796997,-1.215472412,5.612196463,0.0
9.827191208,4.127965851,-4.221970367,-1.403182068,6.069106669,0.0
9.837133208,4.094585266,-5.421725464,-1.366807709,6.930288509,0.0
9.847074208,4.356540527,-6.738088074,-1.091230774,8.097657739,0.0
9.857015208,4.754862213,-7.768994293,-0.6376739502,9.130860587,0.0
9.866956208,5.119803314,-8.497229919,-0.1664538574,9.921845049,0.0
9.876897208,5.778733063,-9.127419434,0.3065625,10.80729022,0.0
9.886838208,6.665489044,-9.727970581,0.809815979,11.8202351,0.0
9.896779208,7.525301056,-9.911339264,1.455423431,12.52928806,0.0
9.906720208,8.55800354,-9.640552368,2.020648041,13.04847474,0.0
9.916661208,9.550140381,-9.18519928,2.3237677,13.4526192,0.0
9.926603208,10.28900391,-8.895401917,2.353406067,13.80327123,0.0
9.936544208,10.96514786,-8.906927948,2.242636414,14.30374955,0.0
9.946485208,11.59114609,-9.158404999,2.02543808,14.91085005,0.0
9.956426208,12.21100708,-9.48472641,1.777104492,15.56363805,0.0
9.966367208,12.81649796,-9.827962646,1.509910126,16.22132233,0.0
9.976308208,13.38531509,-10.19709503,1.19002533,16.86901205,0.0
9.986249208,13.83408188,-10.53823563,0.9475296021,17.4164877,0.0
9.996190208,14.33164719,-10.78372513,0.8470884705,17.95556731,0.0
10.00613221,14.94387405,-10.91844498,0.8927435303,18.52913391,0.0
10.01607321,15.54756866,-10.94583801,0.8849597168,19.03474231,0.0
10.02601421,15.93690903,-10.97966766,0.7277865601,19.36666839,0.0
10.03595521,16.05067245,-10.89509354,0.6686595154,19.41067374,0.0
10.04589621,15.98974915,-10.57595718,0.8128097534,19.18811111,0.0
10.05583721,15.70908279,-10.02914429,1.100361786,18.67002446,0.0
10.06577821,15.36958878,-9.399553528,1.505569153,18.07878879,0.0
10.07571921,15.16496429,-8.840765533,1.919308777,17.6583981,0.0
10.08566021,14.97755402,-8.273894348,2.296224976,17.26433031,0.0
10.09560221,14.72173599,-7.620054016,2.623145142,16.7831947,0.0
10.10554321,14.40244995,-6.941365356,2.850821686,16.24008319,0.0
10.11548421,14.02014496,-6.35473526,2.966381378,15.67630516,0.0
10.12542521,13.49548599,-5.915398865,2.925815735,15.02266566,0.0
10.13536621,12.85541702,-5.585335236,2.710563354,14.27602431,0.0
10.14530721,12.24079514,-5.306614838,2.374212799,13.55116648,0.0
10.15524821,11.70296356,-5.030588837,1.996248779,12.89384308,0.0
10.16518921,11.29491211,-4.711602173,1.585652618,12.34052385,0.0
10.17513021,11.00406693,-4.390070801,1.249152374,11.91312689,0.0
10.18507221,10.73357941,-4.071533203,0.9752220154,11.52120512,0.0
10.19501321,10.52596115,-3.800746307,0.8229885864,11.22135646,0.0
10.20495421,10.42162811,-3.588487701,0.7586224365,11.04821635,0.0
10.21489521,10.31924103,-3.423830109,0.739611969,10.89753981,0.0
10.22483621,10.20323227,-3.303929443,0.7132667542,10.74851841,0.0
10.23477721,10.0846788,-3.1545401,0.660276947,10.58715427,0.0
10.24471821,9.964628448,-2.958597565,0.5766009521,10.41055178,0.0
10.25465921,9.879156189,-2.74154892,0.4068539429,10.26057248,0.0
10.26460021,9.89771759,-2.531835022,0.2456391907,10.21936107,0.0
10.27454221,9.891131287,-2.374212799,0.1095721436,10.17267765,0.0
10.28448321,9.873617706,-2.212848358,0.06391708374,10.11875041,0.0
10.29442421,9.928403778,-2.044897614,0.1739382935,10.13829682,0.0
10.30436521,10.02031265,-1.903292084,0.3826043701,10.20664355,0.0
10.31430621,10.14335678,-1.909728699,0.7179071045,10.34650381,0.0
10.32424721,10.29663803,-2.01840271,0.970581665,10.53739688,0.0
10.33418821,10.55065979,-2.264191589,1.099313965,10.84672655,0.0
10.34412921,10.72983719,-2.552941132,1.107696533,11.0848503,0.0
10.35407021,10.89299789,-2.804268494,1.094673615,11.30131122,0.0
10.36401221,11.10420868,-3.023263092,1.101409607,11.56099793,0.0
10.37395321,11.3136232,-3.217559052,1.132993927,11.81670138,0.0
10.38389421,11.66943329,-3.374881897,1.146615601,12.20164859,0.0
10.39383521,12.11415848,-3.624263306,1.084045715,12.69107069,0.0
10.40377621,12.55199799,-4.247267761,0.9991722107,13.28872763,0.0
10.41371721,12.92262726,-5.171595612,1.024020538,13.95665843,0.0
10.42365821,13.36690338,-6.058501282,1.197509766,14.72459077,0.0
10.43359921,13.70969055,-6.721772003,1.349443817,15.32836692,0.0
10.44354121,13.8152211,-7.077432404,1.387315063,15.58444823,0.0
10.45348221,13.74831024,-7.1106633,1.386416931,15.54026123,0.0
10.46342321,13.54398514,-6.866970062,1.540147247,15.2632521,0.0
10.47336421,13.0959668,-6.497687988,1.767075348,14.72572072,0.0
10.48330521,12.55993149,-6.23303833,1.913321228,14.15144671,0.0
10.49324621,12.11924789,-6.162534943,2.02304306,13.74575242,0.0
10.50318721,11.68814438,-6.203998718,2.108215942,13.39951095,0.0
10.51312833,11.22380997,-6.234834595,2.172731781,13.02182153,0.0
10.52306933,10.74330917,-6.192023621,2.163002014,12.58723267,0.0
10.53301133,10.36968613,-6.089337158,2.105970612,12.20842044,0.0
10.54295233,10.17778519,-6.030509491,2.114203491,12.01766252,0.0
10.55289333,9.990524597,-6.102659454,2.21030365,11.91379353,0.0
10.56283433,9.830657043,-6.239624634,2.427352295,11.89398052,0.0
10.57277533,9.687554626,-6.392007751,2.680326233,11.91178519,0.0
10.58271633,9.587861938,-6.616391144,2.922372894,12.01016202,0.0
10.59265733,9.480385437,-6.858138428,3.21306839,12.13406689,0.0
10.60259833,9.411678314,-7.128326569,3.451971588,12.30076568,0.0
10.61253933,9.382489014,-7.402406616,3.67051712,12.50197663,0.0
10.62248133,9.348509674,-7.727979584,3.874692535,12.73301001,0.0
10.63242233,9.259444885,-8.005801849,4.102219391,12.9096238,0.0
10.64236333,9.14193924,-8.115074615,4.258943481,12.94480933,0.0
10.65230433,9.041797485,-8.126600647,4.302502899,12.89601764,0.0
10.66224533,8.96874939,-8.055648193,4.262536011,12.78675669,0.0
10.67218633,8.907975769,-7.918084259,4.059109039,12.59064958,0.0
10.68212733,8.903634796,-7.792495422,3.711082764,12.40039648,0.0
10.69206833,8.88207962,-7.751031647,3.301235046,12.24205795,0.0
10.70200933,8.828640747,-7.720046082,2.898422699,12.08076418,0.0
10.71195133,8.712033234,-7.655380554,2.566562805,11.87819932,0.0
10.72189233,8.510103149,-7.551047516,2.332449646,11.61380625,0.0
10.73183333,8.236472168,-7.377258911,2.134411469,11.26140023,0.0
10.74177433,7.939789124,-7.13521225,1.989662476,10.85864918,0.0
10.75171533,7.649093628,-6.897207184,1.878144379,10.46936133,0.0
10.76165633,7.422913971,-6.663393402,1.812730408,10.1383655,0.0
10.77159733,7.291786652,-6.493496704,1.72231842,9.914738159,0.0
10.78153833,7.161108398,-6.401737518,1.592987366,9.736597224,0.0
10.79147933,7.08371933,-6.28213623,1.360371094,9.56529794,0.0
10.80142033,7.048392792,-6.221661987,0.9993218994,9.454499621,0.0
10.81136233,7.12233902,-6.144721985,0.4567002869,9.417743707,0.0
10.82130333,7.031777344,-5.939947815,-0.1821711731,9.206631251,0.0
10.83124433,6.730903015,-5.603896637,-0.7366181946,8.789272967,0.0
10.84118533,6.449787598,-5.298681335,-1.137484589,8.424348945,0.0
10.85112633,6.270310822,-5.122348022,-1.227896576,8.189198805,0.0
10.86106733,6.19905899,-5.091811523,-1.031954041,8.088251115,0.0
10.87100833,6.225254517,-5.106331329,-0.6638694763,8.07893162,0.0
10.88094933,6.381529541,-5.138065338,-0.1514849854,8.194301825,0.0
10.89089033,6.577322388,-5.156477051,0.4064048767,8.367531912,0.0
10.90083233,6.73614212,-5.144352264,0.9343569946,8.527191441,0.0
10.91077333,6.769672394,-5.156926117,1.327589264,8.613062437,0.0
10.92071433,6.692582703,-5.15887207,1.572330322,8.595164159,0.0
10.93065533,6.541247406,-5.159919891,1.649569702,8.493160255,0.0
10.94059633,6.336772614,-5.238805847,1.501826935,8.3579458,0.0
10.95053733,6.153852997,-5.386997681,1.288969574,8.279558761,0.0
10.96047833,6.135141907,-5.603896637,1.02611618,8.372367535,0.0
10.97041933,6.329587555,-5.999374237,0.7614665222,8.754199056,0.0
10.98036033,6.674320679,-6.543043671,0.5177732849,9.360879562,0.0
10.99030233,7.028484192,-7.197482758,0.2113604736,10.06220758,0.0
11.00024333,7.296876068,-7.901019745,-0.1558259583,10.7561515,0.0
11.01018433,7.071594543,-8.563991089,-0.4195774841,11.11419984,0.0
11.02012533,6.368506622,-9.002728729,-0.5141807556,11.03953726,0.0
11.03006633,5.597909088,-9.176068268,-0.4698728943,10.75907039,0.0
11.04000733,5.012027435,-9.238638153,-0.2930905151,10.51469239,0.0
11.04994833,4.615801392,-9.22262146,0.02874023438,10.31325337,0.0
11.05988933,4.485871582,-9.013057251,0.4058061218,10.07585845,0.0
11.06983033,4.810097351,-8.507259064,0.7702981567,9.803257242,0.0
11.07977133,5.769602051,-7.884104919,1.060843964,9.827146489,0.0
11.08971333,6.959328003,-7.276069336,1.115330658,10.13002437,0.0
11.09965433,8.014034729,-6.590195618,0.9151968384,10.41599809,0.0
11.10959533,8.679401093,-5.988596649,0.4318519592,10.55375712,0.0
11.11953633,8.93477005,-5.748346252,-0.1984872437,10.62605278,0.0
11.12947733,8.91725647,-5.875282288,-0.8545729065,10.71292209,0.0
11.13941833,8.792865143,-6.35593277,-1.491947479,10.95163303,0.0
11.14935933,8.794960785,-7.024442596,-2.005828857,11.43317447,0.0
11.15930033,8.864266663,-7.669600983,-2.324516144,11.94995305,0.0
11.16924133,9.031019897,-8.09696228,-2.561473389,12.39682477,0.0
11.17918333,9.221573639,-8.186775513,-2.838247833,12.65370951,0.0
11.18912433,9.525292053,-8.073910217,-3.106939087,12.86748947,0.0
11.19906533,9.946965179,-7.781717834,-3.407663727,13.08087997,0.0
11.20900633,10.13063324,-7.330256653,-3.623664551,13.01896068,0.0
11.21894733,10.20592667,-6.769373016,-3.733835449,12.8033932,0.0
11.22888833,10.20023849,-6.251150665,-3.758085022,12.53973497,0.0
11.23882933,10.10847931,-5.824837189,-3.665577393,12.22892227,0.0
11.24877033,10.031689,-5.381159821,-3.402424622,11.88142072,0.0
11.25871133,9.986782379,-4.907844086,-3.121309204,11.55704664,0.0
11.26865233,9.879605255,-4.537065125,-2.800376587,11.2264718,0.0
11.27859433,9.773625641,-4.300556946,-2.485730896,10.96345777,0.0
11.28853533,9.649084625,-4.160747681,-2.248474274,10.74580346,0.0
11.29847633,9.54909256,-4.032015381,-2.132016449,10.58242935,0.0
11.30841733,9.507179718,-3.869752808,-2.066602478,10.47054434,0.0
11.31835833,9.576335907,-3.607647858,-2.082619171,10.44311424,0.0
11.32829933,9.537865906,-3.21067337,-2.171234894,10.29531789,0.0
11.33824033,9.255852356,-2.791994019,-2.315834198,9.941283693,0.0
11.34818133,8.913813629,-2.529290314,-2.358645172,9.561202328,0.0
11.35812233,8.627908173,-2.516117706,-2.227517853,9.25923774,0.0
11.36806433,8.372239838,-2.617157593,-1.866169281,8.968082379,0.0
11.37800533,8.159382477,-2.661016388,-1.345701599,8.687199975,0.0
11.38794633,7.948620758,-2.618205414,-0.8144563293,8.408264426,0.0
11.39788733,7.777376862,-2.560275879,-0.348924408,8.195385999,0.0
11.40782833,7.623047791,-2.45489502,0.043409729,8.008698495,0.0
11.41776933,7.42770401,-2.314786377,0.3255729675,7.786849208,0.0
11.42771033,7.242239685,-2.117496643,0.4677772522,7.559936722,0.0
11.43765133,7.100484467,-1.878892822,0.5004093933,7.361897001,0.0
11.44759233,7.04390213,-1.695075073,0.399818573,7.256010723,0.0
11.45753333,6.904092865,-1.557511139,0.2526745605,7.082103054,0.0
11.46747533,6.767427063,-1.520388336,0.1143621826,6.937054739,0.0
11.47741633,6.725065155,-1.571132813,0.06242019653,6.906435834,0.0
11.48735733,6.740782471,-1.744472351,0.1648072815,6.964803913,0.0
11.49729833,6.720873871,-2.013912048,0.4153862,7.028408996,0.0
11.50723933,6.739884338,-2.237397308,0.7027885437,7.136238459,0.0
11.51718021,6.974596252,-2.434687042,0.9583071899,7.449231272,0.0
11.52712121,7.24044342,-2.548749847,1.279838562,7.781910656,0.0
11.53706221,7.581434326,-2.546953583,1.491797791,8.135759316,0.0
11.54700321,7.951165466,-2.462529144,1.652563477,8.486226965,0.0
11.55694521,8.290509796,-2.393672333,1.764081573,8.80762191,0.0
11.56688621,8.655301208,-2.417173462,1.62756546,9.132685031,0.0
11.57682721,8.919501801,-2.488874359,1.454225922,9.373728232,0.0
11.58676821,9.137448578,-2.655777283,1.477727051,9.629631183,0.0
11.59670921,9.328601074,-2.943479004,1.676962738,9.924669802,0.0
11.60665021,9.681567078,-3.469934235,2.092348938,10.49528984,0.0
11.61659121,10.23915756,-4.253105621,2.727777557,11.41796941,0.0
11.62653221,10.67969147,-5.107229462,3.213667145,12.26650966,0.0
11.63647321,11.04538101,-6.068380737,3.718716888,13.13980752,0.0
11.64641421,11.22351059,-7.291038208,4.028722229,13.97701795,0.0
11.65635621,11.61135406,-8.863069153,4.102668457,15.1726539,0.0
11.66629721,12.16924393,-10.38375687,4.077520752,16.50875767,0.0
11.67623821,12.9021199,-11.56060959,3.707041168,17.71594046,0.0
11.68617921,13.47662521,-12.53418503,3.082988892,18.66092286,0.0
11.69612021,13.5803595,-13.36510712,2.50519043,19.21791434,0.0
11.70606121,13.39998459,-14.37550598,2.280657349,19.78424012,0.0
11.71600221,13.090578,-15.60879135,2.471660156,20.52088458,0.0
11.72594321,12.55678802,-16.75106598,2.708318024,21.10938472,0.0
11.73588421,11.75116333,-17.51208344,2.732567596,21.26569612,0.0
11.74582521,10.80872314,-17.52959702,2.41507782,20.73518431,0.0
11.75576721,10.0462088,-16.8503096,1.719324646,19.69302725,0.0
11.76570821,9.540111237,-15.88466766,0.7078779602,18.54285524,0.0
11.77564921,8.958720245,-14.88444763,-0.3043171692,17.37521392,0.0
11.78559021,8.122409363,-13.80609009,-0.8810678101,16.04237943,0.0
11.79553121,7.128326569,-12.71590714,-1.057550812,14.61594156,0.0
11.80547221,6.142476654,-11.71074738,-1.022523651,13.26337733,0.0
11.81541321,5.299429779,-10.86620361,-0.8831634521,12.12181152,0.0
11.82535421,4.645739136,-10.18916153,-0.660276947,11.21774801,0.0
11.83529521,3.93381958,-9.548643494,-0.3788621521,10.33416981,0.0
11.84523621,3.228037262,-8.86456604,-0.199385376,9.436127923,0.0
11.85517821,2.640808411,-8.199798431,-0.3270698547,8.620762035,0.0
11.86511921,2.287093964,-7.54820343,-0.535436554,7.905242952,0.0
11.87506021,1.938917999,-6.886878662,-0.825383606,7.202066288,0.0
11.88500121,1.661395111,-6.323300629,-1.272354126,6.660574268,0.0
11.89494221,1.47667923,-5.865851898,-1.719324646,6.288471776,0.0
11.90488321,1.442550201,-5.532345428,-1.970352631,6.047320606,0.0
11.91482421,1.525926819,-5.295986938,-1.930236053,5.839669642,0.0
11.92476521,1.740131378,-5.228327637,-1.614243164,5.741885412,0.0
11.93470621,1.958976288,-5.187761993,-1.100810852,5.653516351,0.0
11.94464721,1.971400452,-5.086572418,-0.4680766296,5.47528396,0.0
11.95458921,1.85224823,-5.057532806,0.02140548706,5.386085758,0.0
11.96453021,1.8194664,-5.124892731,0.3658392334,5.450579953,0.0
11.97447121,1.794019318,-5.271587677,0.6875202942,5.610777674,0.0
11.98441221,1.902843018,-5.522016907,0.9240284729,5.913316403,0.0
11.99435321,2.291884003,-5.842500458,1.067879333,6.366153482,0.0
12.00429421,2.83630188,-6.153403931,1.229842529,6.8863271,0.0
12.01423521,3.529510345,-6.42374176,1.333277435,7.449800682,0.0
12.02417621,4.280498657,-6.686445465,1.324296112,8.048911846,0.0
12.03411721,5.01966156,-6.951843567,1.413360901,8.6903809,0.0
12.04405821,5.59072403,-7.228019257,1.493893433,9.259167087,0.0
12.05400021,5.98380661,-7.490573273,1.532213745,9.708877817,0.0
12.06394121,6.13589035,-7.717351685,1.674567719,10.00054221,0.0
12.07388221,6.095474396,-7.935448151,1.735790405,10.1557429,0.0
12.08382321,6.105353851,-8.118218079,1.603166199,10.2835282,0.0
12.09376421,6.202950897,-8.265212402,1.47084137,10.4380894,0.0
12.10370521,6.463409271,-8.373287659,1.252295837,10.65156564,0.0
12.11364621,7.08716217,-8.523275757,0.8343649292,11.11621618,0.0
12.12358721,7.79983017,-8.865913239,0.5471122742,11.82121398,0.0
12.13352821,8.668324127,-9.316326599,0.4019142151,12.73166601,0.0
12.14346921,9.707762604,-9.885742493,0.3312611389,13.85923134,0.0
12.15341121,10.65229843,-10.48449738,0.4472698975,14.95313337,0.0
12.16335221,11.4237941,-10.82952988,0.8174501038,15.76229722,0.0
12.17329321,11.98153427,-10.8742868,1.179247742,16.22337518,0.0
12.18323421,12.51831802,-10.64556244,1.300794983,16.48418495,0.0
12.19317521,13.36585556,-10.60799057,1.121916962,17.10070924,0.0
12.20311621,14.19932236,-10.7959996,0.7526348877,17.85331404,0.0
12.21305721,14.54809708,-10.88671097,0.2694396973,18.17251226,0.0
12.22299821,14.31533112,-10.67115921,-0.1676513672,17.855824,0.0
12.23293921,13.98287247,-10.26595184,-0.2218386841,17.34819017,0.0
12.24288021,13.71627686,-9.604327698,0.05987548828,16.74463933,0.0
12.25282221,13.57137817,-8.583001556,0.3460803223,16.0614443,0.0
12.26276321,13.57616821,-7.318281555,0.4818479919,15.43054652,0.0
12.27270421,13.22844131,-5.882167969,0.3216810608,14.48085075,0.0
12.28264521,12.34752319,-4.527634735,-0.06631210327,13.15162357,0.0
12.29258621,11.17575989,-3.532204742,-0.6735992432,11.74000917,0.0
12.30252721,9.938133545,-2.931653595,-1.200054474,10.43078242,0.0
12.31246821,8.827293549,-2.681074677,-1.554517365,9.355522276,0.0
12.32240921,8.021070099,-2.682272186,-1.606309662,8.608854764,0.0
12.33235021,7.402705994,-2.80471756,-1.229992218,8.011203248,0.0
12.34229121,6.891219635,-2.785108337,-0.7866142273,7.474255712,0.0
12.35223321,6.450536041,-2.614612885,-0.4478686523,6.974682938,0.0
12.36217421,6.083499298,-2.315534821,-0.3192860413,6.517101257,0.0
12.37211521,5.943390656,-1.898502045,-0.4189787292,6.253298783,0.0
12.38205621,5.968089294,-1.517693939,-0.7153623962,6.199453853,0.0
12.39199721,6.082750854,-1.344504089,-1.060544586,6.319201217,0.0
12.40193821,6.20145401,-1.308429108,-1.19930603,6.450453745,0.0
12.41187921,6.334527283,-1.344953156,-1.185834045,6.583413801,0.0
12.42182021,6.496640167,-1.44509491,-0.9361532593,6.720938602,0.0
12.43176121,6.722221069,-1.553619232,-0.4760101318,6.915820593,0.0
12.44170221,7.116052094,-1.7796492,0.1157093811,7.336125499,0.0
12.45164421,7.40779541,-1.981579285,0.7719447327,7.707009016,0.0
12.46158521,7.320975952,-2.031874695,1.028361511,7.6669897,0.0
12.47152621,7.067253571,-2.254461823,0.9174421692,7.474648572,0.0
12.48146721,6.666087799,-2.759960632,0.7566764832,7.254424067,0.0
12.49140821,6.09846817,-3.450474701,0.3610491943,7.016227348,0.0
12.50134921,5.490133209,-4.352798309,0.01841171265,7.006336758,0.0
12.51129021,4.708309021,-5.271437988,-0.1556762695,7.069686514,0.0
12.52123133,4.301305389,-6.114933929,-0.3474275208,7.484273572,0.0
12.53117233,4.801116028,-6.483168182,-0.3782633972,8.076216193,0.0
12.54111333,5.871989136,-6.293512573,-0.2200424194,8.61028313,0.0
12.55105433,6.967261505,-5.833219757,0.2616558838,9.090525255,0.0
12.56099633,8.13677948,-5.606291656,0.7852670288,9.912332256,0.0
12.57093733,9.38877594,-5.901777191,1.097667389,11.14383064,0.0
12.58087833,10.63553329,-6.754104767,1.343456268,12.67033442,0.0
12.59081933,11.69353317,-7.907606049,1.489851837,14.19466836,0.0
12.60076033,12.70408173,-9.147477722,1.310674438,15.70948467,0.0
12.61070133,13.4077684,-10.52805679,1.012045441,17.07725005,0.0
12.62064233,13.90443558,-11.85444855,0.8116122437,18.28988774,0.0
12.63058333,14.36667435,-13.0441745,0.659229126,19.4161377,0.0
12.64052433,14.63551529,-14.12881897,0.6515950012,20.35304423,0.0
12.65046533,14.63791031,-15.03832764,0.7054829407,20.99803378,0.0
12.66040733,14.46666641,-15.75054657,0.7286846924,21.39848443,0.0
12.67034833,13.88946671,-16.15829865,0.7231462097,21.31972891,0.0
12.68028933,12.97127609,-16.18105133,0.6756948853,20.74938527,0.0
12.69023033,12.02868622,-15.79006439,0.6533912659,19.86057265,0.0
12.70017133,11.16019226,-15.02335876,0.6414161682,18.72598768,0.0
12.71011233,10.40546173,-14.0342157,0.6239025879,17.48205075,0.0
12.72005333,9.704319763,-12.88520508,0.5457650757,16.14001832,0.0
12.72999433,8.821605377,-11.76777878,0.4574487305,14.7142991,0.0
12.73993533,7.923023987,-10.6939119,0.380508728,13.31461031,0.0
12.74987633,6.841822357,-9.751322021,0.2865042114,11.9155738,0.0
12.75981733,5.730533295,-9.169481964,0.2252815247,10.8152283,0.0
12.76975933,4.72597229,-8.940458221,0.2398013306,10.11553815,0.0
12.77970033,3.834575958,-8.809779968,0.3529660034,9.614612882,0.0
12.78964133,3.092119904,-8.409961395,0.5692662048,8.978458675,0.0
12.79958233,2.149230652,-7.87587204,0.6749464417,8.191709558,0.0
12.80952333,1.120270386,-7.461383972,0.5619314575,7.56591194,0.0
12.81946433,0.2680924988,-7.157216492,0.3733236694,7.171958732,0.0
12.82940533,-0.3115022278,-6.872209167,0.272283783,6.884651839,0.0
12.83934633,-0.629740448,-6.638096008,0.1451980591,6.669480799,0.0
12.84928733,-0.8488847351,-6.4378125,-0.01152603149,6.493548177,0.0
12.85922833,-1.102607117,-6.174659729,-0.1591191101,6.27435129,0.0
12.86916933,-1.286275177,-5.880671082,-0.2269281006,6.023976474,0.0
12.87911133,-1.237776031,-5.669460297,-0.159717865,5.805202783,0.0
12.88905233,-0.8089178467,-5.608836365,0.06676116943,5.667261288,0.0
12.89899333,-0.1094224548,-5.535189514,0.3784130859,5.549188472,0.0
12.90893433,0.6950047302,-5.407954102,0.6915618896,5.496112898,0.0
12.91887533,1.444196777,-5.247338104,0.8454418945,5.507724894,0.0
12.92881633,2.119592285,-5.204976196,0.8054750061,5.677432399,0.0
12.93875733,2.810256042,-5.327271881,0.662971344,6.059446817,0.0
12.94869833,3.600013733,-5.574557648,0.467328186,6.652382091,0.0
12.95863933,4.331093445,-5.897136841,0.2817141724,7.322155162,0.0
12.96858033,4.922064514,-6.153852997,0.1571731567,7.88170852,0.0
12.97852233,5.345084839,-6.234385529,0.1047821045,8.212702,0.0
12.98846333,5.609285431,-6.238127747,-0.02754272461,8.389224006,0.0
12.99840433,6.073619843,-6.487359467,-0.1056802368,8.887398897,0.0
13.00834533,6.755751343,-7.148235168,0.03891906738,9.835596419,0.0
13.01828633,7.773484955,-8.1484552,0.2769241333,11.26503784,0.0
13.02822733,9.039402466,-9.449100494,0.6015989685,13.09038649,0.0
13.03816833,10.06626709,-10.64750839,1.053808594,14.69046223,0.0
13.04810933,10.90377548,-11.43921204,1.417402496,15.86684977,0.0
13.05805033,11.65910477,-11.84666473,1.754800873,16.71399161,0.0
13.06799133,12.34123627,-12.09005859,1.996847534,17.39146427,0.0
13.07793233,13.18772598,-12.3527623,2.182461548,18.20082392,0.0
13.08787433,14.33823349,-12.88325912,2.271226959,19.40932191,0.0
13.09781533,15.49323166,-13.61388977,2.17752182,20.73933035,0.0
13.10775633,16.07162888,-14.12118484,2.272424469,21.51439121,0.0
13.11769733,16.18658981,-14.12013702,2.702779541,21.64922577,0.0
13.12763833,15.97088837,-13.64906662,2.968177643,21.21736019,0.0
13.13757933,15.43515244,-12.7668013,2.762205963,20.2204087,0.0
13.14752033,14.59884155,-11.5233371,2.063309326,18.71284901,0.0
13.15746133,13.59143646,-10.02540207,0.9798623657,16.91732727,0.0
13.16740233,12.78970367,-8.70544693,-0.2333647156,15.47306645,0.0
13.17734333,12.29288681,-7.664661255,-1.238823853,14.53949046,0.0
13.18728433,11.77062286,-6.860832825,-1.903292084,13.75649339,0.0
13.19722633,11.18608841,-6.13828537,-2.236798553,12.95416493,0.0
13.20716733,10.60409866,-5.360353088,-2.292482758,12.10106487,0.0
13.21710833,10.1364711,-4.682263184,-2.19743042,11.37982141,0.0
13.22704933,9.901759186,-4.17257309,-2.110760651,10.95036582,0.0
13.23699033,9.645342407,-3.70210144,-2.232008514,10.56977044,0.0
13.24693133,9.279503174,-3.209775238,-2.493814087,10.13069321,0.0
13.25687233,8.854985962,-2.636317749,-2.717149658,9.630360841,0.0
13.26681333,8.483009491,-1.995799713,-2.858156433,9.171353483,0.0
13.27675433,8.145461426,-1.333427124,-2.988535309,8.778263668,0.0
13.28669533,7.885751495,-0.6080355835,-2.967129822,8.44740453,0.0
13.29663633,7.547904053,0.1914518738,-2.844235382,8.068282613,0.0
13.30657833,7.19838089,0.7479945374,-2.738255768,7.73784388,0.0
13.31651933,7.06141571,0.9677375793,-2.634222107,7.598633691,0.0
13.32646033,7.014563141,1.014141083,-2.510130157,7.518865047,0.0
13.33640133,6.864275665,1.054557037,-2.3436763,7.329610464,0.0
13.34634233,6.715185699,1.014590149,-2.144440613,7.121919523,0.0
13.35628333,6.776707764,0.7544311523,-1.872306519,7.070959353,0.0
13.36622433,7.087012482,0.2595602417,-1.62996048,7.27666741,0.0
13.37616533,7.454797668,-0.3005749512,-1.483415222,7.606896496,0.0
13.38610633,7.828869781,-0.7144642639,-1.486408997,8.000692029,0.0
13.39604733,8.19994812,-1.035995636,-1.532513123,8.406011694,0.0
13.40598833,8.661887512,-1.38776413,-1.601819,8.91739921,0.0
13.41593033,9.013656006,-1.8791922,-1.63340332,9.351222611,0.0
13.42587133,9.354347534,-2.437082062,-1.58310791,9.79537735,0.0
13.43581233,9.659712524,-3.025358734,-1.472487946,10.22893261,0.0
13.44575333,9.854008484,-3.633394318,-1.347348175,10.58859691,0.0
13.45569433,10.04920258,-4.172124023,-1.251098328,10.9525494,0.0
13.46563533,10.08303223,-4.695136414,-1.020727386,11.16932089,0.0
13.47557633,10.08572662,-5.059179382,-0.8830137634,11.3179897,0.0
13.48551733,10.17613861,-5.330714722,-0.835562439,11.51818046,0.0
13.49545833,10.29798523,-5.64101944,-0.8303233337,11.77111027,0.0
13.50539933,10.78162949,-6.11957428,-0.8053253174,12.4234163,0.0
13.51534046,11.34565659,-6.731801147,-0.7313790894,13.21272059,0.0
13.52528246,11.8697168,-7.496860199,-0.5945635986,14.05156915,0.0
13.53522346,12.35381012,-8.468789062,-0.2883004761,14.98065852,0.0
13.54516446,12.87816971,-9.372010803,0.001945953369,15.92739292,0.0
13.55510546,13.6281102,-10.24559418,0.003442840576,17.04985629,0.0
13.56504646,14.58671677,-11.4104718,-0.1995350647,18.5205558,0.0
13.57498746,15.57526108,-12.87816971,-0.4987628174,20.21595353,0.0
13.58492846,16.14707199,-14.21249496,-0.6560856628,21.52099894,0.0
13.59486946,16.25589569,-15.12394958,-0.5715115356,22.21068709,0.0
13.60481046,16.21518036,-15.67540283,-0.3308120728,22.55570359,0.0
13.61475146,15.85802307,-15.880177,0.006735992432,22.44230297,0.0
13.62469246,15.20373367,-15.87448883,0.3423381042,21.9834053,0.0
13.63463446,14.33479065,-15.71746536,0.6333329773,21.28205937,0.0
13.64457546,13.4303714,-15.28232025,1.077010345,20.3736138,0.0
13.65451646,12.47281265,-14.46067886,1.688638458,19.17117077,0.0
13.66445746,11.44624741,-13.36765182,2.290087738,17.74697712,0.0
13.67439846,10.39767792,-12.09544739,2.728076935,16.18190215,0.0
13.68433946,9.66719696,-11.38756943,2.871628418,15.21110398,0.0
13.69428046,8.695417786,-10.77249847,2.759661255,14.11639983,0.0
13.70422146,7.475604401,-9.856702881,2.513722687,12.62371002,0.0
13.71416246,6.195915527,-8.945397949,2.220033417,11.10576706,0.0
13.72410346,4.962630157,-8.049660645,1.972298584,9.659953223,0.0
13.73404446,3.860322418,-7.268884277,1.666484528,8.397376882,0.0
13.74398646,2.937790833,-6.663094025,1.196611633,7.379655572,0.0
13.75392746,2.072739716,-6.149661713,0.5845344543,6.515847576,0.0
13.76386846,1.306034088,-5.772146759,0.07708969116,5.918559459,0.0
13.77380946,0.67045578,-5.473517761,-0.2294728088,5.519199707,0.0
13.78375046,0.1811233521,-5.23730896,-0.2814147949,5.247990577,0.0
13.79369146,-0.1049317932,-5.02669693,-0.1285826111,5.029435972,0.0
13.80363246,-0.1791773987,-4.790637817,0.06301895142,4.794401592,0.0
13.81357346,-0.02844085693,-4.530329132,0.1438508606,4.532701622,0.0
13.82351446,0.1091230774,-4.339176636,0.09310638428,4.341547019,0.0
13.83345546,0.2100132751,-4.26852356,-0.0643661499,4.274171493,0.0
13.84339646,0.4845423889,-4.268673248,-0.2456391907,4.303102513,0.0
13.85333746,0.899329834,-4.257296906,-0.3951782227,4.369157461,0.0
13.86327946,1.323697357,-4.244573364,-0.5306465149,4.477740888,0.0
13.87322046,1.683848419,-4.308640137,-0.7081773376,4.679876117,0.0
13.88316146,1.974244537,-4.391567688,-0.9506730652,4.907880146,0.0
13.89310246,2.216740265,-4.472249908,-1.170565796,5.12690754,0.0
13.90304346,2.344574432,-4.544549561,-1.30348938,5.277219395,0.0
13.91298446,2.469265137,-4.57508606,-1.465751953,5.401584171,0.0
13.92292546,2.640509033,-4.707111511,-1.632804565,5.638726583,0.0
13.93286646,2.9767099,-4.977748718,-1.672172699,6.036136651,0.0
13.94280746,3.221151581,-5.336702271,-1.52577713,6.417492071,0.0
13.95274846,3.386557617,-5.58832901,-1.20514389,6.644589183,0.0
13.96268946,3.610192566,-5.763315125,-0.7888595581,6.846283005,0.0
13.97263146,3.989803162,-6.081403656,-0.597557373,7.297881508,0.0
13.98257246,4.490661621,-6.533164215,-0.4302053833,7.939354705,0.0
13.99251346,5.282365265,-7.143145752,-0.1320254517,8.885119287,0.0
14.00245446,6.634653168,-8.101452942,0.03098556519,10.47153869,0.0
14.01239546,8.265811157,-9.523196411,0.1447489929,12.61094193,0.0
14.02233646,9.763895874,-11.34176468,0.6387217712,14.97922742,0.0
14.03227746,10.90587112,-13.39414673,1.47084137,17.33506752,0.0
14.04221846,11.40628052,-14.73460922,2.417772217,18.78982615,0.0
14.05215946,11.91567123,-15.10029877,3.229234772,19.50461999,0.0
14.06210046,12.90705963,-15.0693132,3.754941559,20.19346367,0.0
14.07204146,14.09903091,-14.90495499,4.243824921,20.95114331,0.0
14.08198246,15.39593399,-14.23315201,4.741839294,21.49656808,0.0
14.09192446,16.27325958,-12.94777496,5.118156738,21.41633447,0.0
14.10186546,16.74882065,-11.35134476,5.089266815,20.86328492,0.0
14.11180646,16.88369019,-9.796827393,4.572092285,20.04846251,0.0
14.12174746,16.62278275,-8.494236145,3.850892029,19.06038623,0.0
14.13168846,16.07043137,-7.665858765,2.939736786,18.04622418,0.0
14.14162946,15.24804153,-7.432643738,1.867217102,17.06556367,0.0
14.15157046,14.06460251,-7.741451569,0.8461903381,16.0766649,0.0
14.16151146,13.02516403,-8.240813141,-0.02574645996,15.41319442,0.0
14.17145246,12.29153961,-8.449329529,-0.5441184998,14.92545411,0.0
14.18139346,11.57483002,-8.213569794,-0.7607180786,14.21330752,0.0
14.19133446,10.94688583,-7.754474487,-0.9777667236,13.45073276,0.0
14.20127546,10.50485504,-7.122488708,-1.044677582,12.73472324,0.0
14.21121746,10.20113663,-6.286177826,-1.02267334,12.02601683,0.0
14.22115846,10.03872437,-5.423821106,-0.8273295593,11.44020526,0.0
14.23109946,9.997859344,-4.767735443,-0.44697052,11.08549843,0.0
14.24104046,9.886191559,-4.261637878,-0.03173400879,10.76565595,0.0
14.25098146,9.671537933,-3.887715454,0.3134481812,10.42838565,0.0
14.26092246,9.302854614,-3.638633423,0.6291416931,10.00892484,0.0
14.27086346,8.916208649,-3.467090149,0.8822653198,9.607178715,0.0
14.28080446,8.692124634,-3.44478653,1.034648438,9.406916725,0.0
14.29074546,8.335416412,-3.465293884,1.043779449,9.087183503,0.0
14.30068646,7.958200836,-3.36515213,1.004111938,8.698588977,0.0
14.31062746,7.672594757,-3.135679321,0.9451345825,8.342330279,0.0
14.32056946,7.495063934,-2.92401947,0.6987469482,8.075526022,0.0
14.33051046,7.408094788,-2.752625885,0.430355072,7.914671385,0.0
14.34045146,7.219786377,-2.580334167,0.1622625732,7.66875276,0.0
14.35039246,7.00408493,-2.460134125,-0.1360670471,7.424821874,0.0
14.36033346,6.843169556,-2.485431519,-0.37676651,7.290287539,0.0
14.37027446,6.697821808,-2.584525452,-0.5842350769,7.202910482,0.0
14.38021546,6.59812912,-2.652933197,-0.786763916,7.154883639,0.0
14.39015646,6.529871063,-2.709814911,-0.9062155151,7.127660171,0.0
14.40009746,6.602919159,-2.735411682,-0.963097229,7.211697079,0.0
14.41003846,6.900200958,-2.820734253,-1.108744354,7.536486518,0.0
14.41997946,7.451953583,-3.026556244,-1.336420898,8.153384311,0.0
14.42992046,7.833210754,-3.287763062,-1.421294403,8.613283605,0.0
14.43986246,8.02092041,-3.654949493,-1.576521606,8.954286147,0.0
14.44980346,8.063881073,-4.121978302,-1.607956238,9.19795664,0.0
14.45974446,8.047115936,-4.65337326,-1.615440674,9.435020199,0.0
14.46968546,8.166417847,-5.340893555,-1.629212036,9.892919502,0.0
14.47962646,8.48076416,-6.147416382,-1.497635651,10.58097356,0.0
14.48956746,8.822952576,-6.766828308,-1.056652679,11.16919748,0.0
14.49950846,8.858129425,-7.075935516,-0.3629951477,11.34315149,0.0
14.50944946,8.688831482,-7.040758667,0.3487747192,11.18882116,0.0
14.5193905,8.458759918,-6.969806213,0.8647517395,10.9943901,0.0
14.5293315,8.365952911,-7.227719879,1.31172226,11.13327077,0.0
14.5392725,8.555758209,-7.949818268,1.567540283,11.7837936,0.0
14.5492135,8.66443222,-9.133556671,1.499282227,12.6784104,0.0
14.5591555,8.417445831,-10.23751099,1.277293854,13.31508562,0.0
14.5690965,7.990683289,-11.29685806,1.007704468,13.873914,0.0
14.5790375,7.052733765,-12.06850342,0.62599823,13.99220147,0.0
14.5889785,6.640940094,-12.59121643,-0.01242416382,14.23520182,0.0
14.5989195,6.824608154,-13.35358109,-0.8536747742,15.02072451,0.0
14.6088605,6.700965271,-14.20560928,-1.663341064,15.79458686,0.0
14.6188015,6.218518524,-15.07979141,-2.421364746,16.49039384,0.0
14.6287425,5.835764465,-16.23044861,-3.097658386,17.52367246,0.0
14.6386835,5.5778508,-17.61432083,-3.553909607,18.81507352,0.0
14.6486245,5.167554016,-18.37863144,-3.340303802,19.38131413,0.0
14.6585655,4.792583771,-18.25723389,-2.547103271,19.04686808,0.0
14.6685065,4.788392487,-17.31554214,-1.401385803,18.02000512,0.0
14.6784475,5.19285141,-15.76012665,-0.2856060791,16.59604979,0.0
14.6883895,5.597759399,-14.18375473,0.5321434021,15.2576861,0.0
14.6983305,5.836961975,-12.87607407,0.8991801453,14.16587214,0.0
14.7082715,5.85746933,-11.85534668,1.00396225,13.26149057,0.0
14.7182125,5.646408234,-11.11199249,0.9500743103,12.50043776,0.0
14.7281535,5.83756073,-10.6500531,0.7771838379,12.16982995,0.0
14.7380945,6.23423584,-10.5160817,0.5786965942,12.23881369,0.0
14.7480355,6.041885834,-10.33450928,0.06062393188,11.9712214,0.0
14.7579765,5.241799622,-9.920470276,-0.6747967529,11.24044236,0.0
14.7679175,4.283941498,-9.367520142,-1.361718292,10.39022931,0.0
14.7778585,3.665278015,-8.752598877,-1.957629089,9.688888568,0.0
14.7877995,3.525319061,-8.246052246,-2.226470032,9.240260869,0.0
14.7977405,3.554807739,-7.648045807,-1.957778778,8.658069096,0.0
14.8076825,3.690575409,-6.955136719,-1.501826935,8.015594661,0.0
14.8176235,4.025578766,-6.434968414,-0.9563612366,7.65040716,0.0
14.8275645,4.451443176,-6.127058716,-0.3689826965,7.582370545,0.0
14.8375055,4.80785202,-5.851781158,0.08517288208,7.574037113,0.0
14.8474465,5.003644867,-5.503455505,0.433049469,7.45063865,0.0
14.8573875,4.897365875,-5.147495728,0.6715036011,7.136653408,0.0
14.8673285,4.653822327,-4.968468018,0.7658074951,6.850561861,0.0
14.8772695,4.294569397,-5.0536409,0.6978488159,6.668553488,0.0
14.8872105,4.122876434,-5.400020599,0.5246589661,6.814220395,0.0
14.8971515,4.045637054,-5.716462555,0.4290078735,7.016350267,0.0
14.9070925,3.982618103,-5.778134308,0.3673361206,7.027305235,0.0
14.9170335,3.841012573,-5.621410217,0.193996582,6.811113352,0.0
14.9269755,3.885470123,-5.385500793,-0.09580078125,6.641511474,0.0
14.9369165,3.982169037,-5.14599884,-0.3409909058,6.515769264,0.0
14.9468575,3.955374756,-4.940476227,-0.3841012573,6.340412335,0.0
14.9567985,3.948040009,-4.909939728,-0.3168910217,6.308323704,0.0
14.9667395,4.055217133,-5.005890198,-0.1881587219,6.445085443,0.0
14.9766805,4.187541962,-5.123545532,-0.04400848389,6.617262519,0.0
14.9866215,4.174668732,-5.19285141,0.05613327026,6.663086051,0.0
14.9965625,3.941304016,-5.260959778,0.1633103943,6.575579474,0.0
15.0065035,3.697012024,-5.201383667,0.312999115,6.38907336,0.0
15.0164445,3.478167114,-5.051096191,0.3378474426,6.14209737,0.0
15.0263855,3.387904816,-5.014721832,0.3091072083,6.059775686,0.0
15.0363265,3.331472168,-5.063370667,0.1965412903,6.064244206,0.0
15.0462675,3.311713257,-5.191803589,0.0122744751,6.158118208,0.0
15.0562095,3.404819641,-5.379213867,-0.08442443848,6.366778314,0.0
15.0661505,3.515589294,-5.665418701,-0.01047821045,6.667566793,0.0
15.0760915,3.701203308,-5.88785614,0.2053729248,6.957581037,0.0
15.0860325,3.891607361,-6.022875366,0.5474116516,7.191612826,0.0
15.0959735,3.981420593,-6.144871674,0.902024231,7.377316961,0.0
15.1059145,4.048032074,-6.281687164,1.221909027,7.572266436,0.0
15.1158555,4.25445282,-6.292165375,1.613794098,7.76505282,0.0
15.1257965,4.679868164,-6.203699341,1.900148621,7.999851019,0.0
15.1357375,5.161865845,-6.179749146,1.978735199,8.29153493,0.0
15.1456785,5.683830414,-6.270759888,2.033371582,8.704191963,0.0
15.1556195,6.40503067,-6.4776297,2.026934967,9.332339994,0.0
15.1655605,7.520511017,-6.755601654,1.926044769,10.29105865,0.0
15.1755015,8.565487976,-7.10826828,1.719474335,11.26284397,0.0
15.1854435,9.695937195,-7.705675964,1.210832062,12.44406503,0.0
15.1953845,10.87518494,-8.302185516,0.743354187,13.70213513,0.0
15.2053255,11.61644348,-8.669072571,0.3766168213,14.49953167,0.0
15.2152665,12.76605286,-9.132059784,-0.2191442871,15.6976,0.0
15.2252075,14.08780426,-9.865085449,-0.6279441833,17.20989406,0.0
15.2351485,15.1025441,-11.06888214,-1.011596375,18.75180837,0.0
15.2450895,16.18733826,-12.27986389,-0.9687854004,20.34117799,0.0
15.2550305,16.84177734,-12.78296768,-0.8259823608,21.15967802,0.0
15.2649715,16.86288345,-12.32851273,-0.6280938721,20.89841062,0.0
15.2749125,16.41306885,-11.0760672,-0.382155304,19.80439689,0.0
15.2848535,15.83961136,-9.3654245,-0.2380050659,18.40274736,0.0
15.2947945,15.11032791,-7.637567596,-0.219743042,16.93229859,0.0
15.3047365,14.17701874,-6.373745728,-0.6012995911,15.55551529,0.0
15.3146775,13.07905197,-5.631139984,-1.118324432,14.28362655,0.0
15.3246185,11.79562088,-5.477858734,-1.681004333,13.11370977,0.0
15.3345595,10.5690715,-5.872887268,-2.26883194,12.30218174,0.0
15.3445005,9.332792358,-6.332431641,-2.531385956,11.55891944,0.0
15.3544415,7.992329865,-6.72686142,-2.767145691,10.80671534,0.0
15.3643825,6.987619171,-6.996151428,-2.838696899,10.28742711,0.0
15.3743235,6.160289612,-6.910679169,-2.775977325,9.665024821,0.0
15.3842645,5.610632629,-6.700067139,-2.769989777,9.167493743,0.0
15.3942055,5.690716095,-6.471492462,-2.680326233,9.024888535,0.0
15.4041465,6.152056732,-6.312373352,-2.40220459,9.13588782,0.0
15.4140875,6.617289276,-6.133046265,-1.990560608,9.23932386,0.0
15.4240285,6.965614929,-5.906267853,-1.481918335,9.252019955,0.0
15.4339705,7.293582916,-5.700296173,-0.9120533752,9.301697134,0.0
15.4439115,7.634274445,-5.518574066,-0.340841217,9.426185801,0.0
15.4538525,7.894732819,-5.464686127,0.1839674377,9.603303846,0.0
15.4637935,7.975714417,-5.608387299,0.6553372192,9.772179666,0.0
15.4737345,7.946375427,-5.754633179,1.002165985,9.862303084,0.0
15.4836755,7.981701965,-5.833668823,1.196461945,9.95845266,0.0
15.4936165,8.090226288,-5.956563263,1.254990234,10.1245942,0.0
15.5035575,8.352331238,-6.162984009,1.189875641,10.44794779,0.0
15.5134985,8.562045135,-6.259533234,1.118923187,10.66500644,0.0
15.52343946,8.777297516,-6.23184082,1.093775482,10.82003403,0.0
15.53338046,8.815767517,-6.10086319,1.093925171,10.77659319,0.0
15.54332146,8.634943542,-5.873486023,1.075663147,10.49843509,0.0
15.55326246,8.308023376,-5.626200256,1.070424042,10.09074771,0.0
15.56320446,7.841593323,-5.312752075,1.06129303,9.531120781,0.0
15.57314546,7.440128174,-5.116510162,1.034498749,9.088694689,0.0
15.58308646,7.163653107,-5.152435455,0.9521699524,8.875367292,0.0
15.59302746,6.877448273,-5.316643982,0.8385562134,8.733222458,0.0
15.60296846,6.565047913,-5.50764679,0.7149133301,8.599135324,0.0
15.61290946,6.212980042,-5.647156677,0.6462062073,8.420753054,0.0
15.62285046,5.823340302,-5.709427185,0.6496490479,8.181130419,0.0
15.63279146,5.373226318,-5.637576599,0.7018904114,7.819621546,0.0
15.64273246,4.920567627,-5.534141693,0.7312294006,7.441330962,0.0
15.65267346,4.482877808,-5.545218658,0.7445516968,7.169379376,0.0
15.66261446,4.23334671,-5.721252594,0.7183561707,7.153320292,0.0
15.67255546,4.24157959,-5.994434509,0.6885681152,7.375524968,0.0
15.68249646,4.293970642,-6.192622375,0.5909710693,7.558836059,0.0
15.69243846,4.676125946,-6.342311096,0.3848497009,7.889180768,0.0
15.70237946,5.273084564,-6.625971222,0.1350192261,8.469188016,0.0
15.71232046,5.810018005,-7.14688797,-0.1058299255,9.211162622,0.0
15.72226146,6.280339966,-8.004754028,-0.3351530457,10.1799354,0.0
15.73220246,6.673572235,-9.102870483,-0.5562432861,11.30080634,0.0
15.74214346,6.859335938,-10.25936554,-0.7021897888,12.36115453,0.0
15.75208446,6.765780487,-11.37319931,-0.7325765991,13.25375858,0.0
15.76202546,6.50562149,-12.26758942,-0.7276368713,13.90490261,0.0
15.77196646,6.342011719,-12.93056076,-0.5751040649,14.41357898,0.0
15.78190746,6.617139587,-13.53215973,-0.3487747192,15.06743266,0.0
15.79184846,7.162754974,-14.07148819,0.05972579956,15.78972469,0.0
15.80178946,7.540419617,-14.26234131,0.6078858948,16.14440562,0.0
15.81173046,7.738158417,-13.85593643,1.196162567,15.91530317,0.0
15.82167146,8.027357025,-13.12171326,1.737436981,15.48019725,0.0
15.83161346,8.499624939,-12.24992615,2.05821991,15.05126519,0.0
15.84155446,8.902736664,-11.29551086,2.093995514,14.53382617,0.0
15.85149546,8.990454254,-10.23586441,1.938618622,13.76079322,0.0
15.86143646,8.744964752,-9.236392822,1.731150055,12.83675354,0.0
15.87137746,8.479267273,-8.46085556,1.514849854,12.07389003,0.0
15.88131846,8.421038361,-7.817044373,1.301992493,11.56353122,0.0
15.89125946,8.396339722,-7.232809296,1.073567505,11.13393903,0.0
15.90120046,8.215066681,-6.718478851,0.9065148926,10.65115242,0.0
15.91114146,7.997718658,-6.219117279,0.812510376,10.1637147,0.0
15.92108246,7.791297913,-5.786965942,0.8180488586,9.739738288,0.0
15.93102346,7.636968842,-5.45375885,0.8204438782,9.420186136,0.0
15.94096446,7.521858215,-5.18581604,0.8396040344,9.174746533,0.0
15.95090546,7.430548096,-4.931794281,0.8155041504,8.955483619,0.0
15.96084746,7.201075287,-4.662953339,0.7345225525,8.610350893,0.0
15.97078846,7.023544464,-4.445605316,0.6132746887,8.334847888,0.0
15.98072946,6.88358551,-4.38198761,0.5343887329,8.177477374,0.0
15.99067046,6.836433563,-4.367767181,0.6224057007,8.136436743,0.0
16.00061146,6.853049011,-4.416715393,0.8975335693,8.202269328,0.0
16.01055246,6.881489868,-4.425397339,1.270258484,8.279649813,0.0
16.02049346,6.986421661,-4.393813019,1.650617523,8.416663156,0.0
16.03043446,7.216193848,-4.41476944,2.023641815,8.698204933,0.0
16.04037546,7.53413269,-4.50248703,2.364932098,9.090019179,0.0
16.05031646,7.886949005,-4.540507965,2.572550354,9.457176773,0.0
16.06025746,8.336015167,-4.663552094,2.52270401,9.879367516,0.0
16.07019846,9.240883484,-5.083279266,2.028132477,10.739971,0.0
16.08013946,10.22239243,-5.396278381,1.109792175,11.61244014,0.0
16.09008146,10.46369064,-5.139113159,-0.01571731567,11.65759636,0.0
16.10002246,9.90475296,-4.590354309,-1.170416107,10.97931499,0.0
16.10996346,8.995843048,-4.399650879,-2.331701202,10.28197211,0.0
16.11990446,8.604257355,-4.872367859,-3.549568634,10.50583888,0.0
16.12984546,8.469387817,-5.718558197,-4.318220215,11.09411843,0.0
16.13978646,8.293353882,-6.30563736,-4.170776825,11.22212816,0.0
16.14972746,8.472980347,-6.487209778,-3.351380768,11.18512582,0.0
16.15966846,9.131610718,-6.605314178,-2.35654953,11.51389662,0.0
16.16960946,9.905651093,-6.82745224,-1.668729858,12.14580944,0.0
16.17955046,10.78522202,-7.388934631,-1.319206696,13.13992676,0.0
16.18949146,11.52438492,-8.35442688,-1.140628052,14.27966836,0.0
16.19943246,11.88318878,-9.44026886,-0.9991722107,15.20944433,0.0
16.20937346,12.3978186,-10.63224014,-0.8734336853,16.35583452,0.0
16.21931446,13.04297699,-11.88633224,-0.6679110718,17.65928221,0.0
16.22925646,13.79291748,-12.69854324,-0.0817300415,18.74844668,0.0
16.23919746,14.53941513,-12.58223511,0.7252418518,19.24144507,0.0
16.24913846,15.34459076,-11.57423126,1.292861481,19.26371682,0.0
16.25907946,16.11159576,-9.862989807,1.59598114,18.95809172,0.0
16.26902046,17.07214828,-7.983797607,1.583856354,18.91316664,0.0
16.27896146,18.12356186,-6.172863464,1.088835754,19.17689498,0.0
16.28890246,18.61977997,-4.584516449,0.5279521179,19.18313662,0.0
16.29884346,18.53849899,-3.382516022,-0.05748046875,18.84464549,0.0
16.30878446,17.84214706,-2.613415375,-0.8271798706,18.05149241,0.0
16.31872546,16.5968866,-2.372865601,-1.685644684,16.85017905,0.0
16.32866646,15.14325943,-2.617157593,-2.37526062,15.55023096,0.0
16.33860746,13.69951172,-3.219804382,-2.815644836,14.35171131,0.0
16.34854846,12.38749008,-3.867507477,-3.013982391,13.32259789,0.0
16.35848946,11.24656265,-4.362528076,-2.846331024,12.39428994,0.0
16.36843146,10.26280838,-4.638554077,-2.443219299,11.52435423,0.0
16.37837246,9.474697266,-4.745132446,-2.098336487,10.8022769,0.0
16.38831346,8.838220825,-4.829856262,-1.751058655,10.22290885,0.0
16.39825446,8.346643066,-4.984335022,-1.394051056,9.821070432,0.0
16.40819546,7.96598465,-5.076842651,-0.9581575012,9.494698971,0.0
16.41813646,7.702532501,-4.937931519,-0.4077520752,9.158517149,0.0
16.42807746,7.543413391,-4.647086334,0.076640625,8.860269227,0.0
16.43801846,7.47680191,-4.328548737,0.4782554626,8.652608235,0.0
16.44795946,7.447911987,-4.127217407,0.8683442688,8.559166914,0.0
16.45790046,7.470365295,-4.057312775,1.179996185,8.582571619,0.0
16.46784146,7.527696075,-4.113146667,1.357077942,8.684805366,0.0
16.47778246,7.613168335,-4.301904144,1.440753937,8.862419719,0.0
16.48772346,7.636519775,-4.57733139,1.41231308,9.014600666,0.0
16.49766546,7.575746155,-4.85814743,1.252295837,9.086350814,0.0
16.50760646,7.502847748,-5.144202576,1.050216064,9.157428583,0.0
16.51755075,7.463030548,-5.458997955,0.8351133728,9.284120744,0.0
16.52749175,7.410040741,-5.799988861,0.6819818115,9.434705812,0.0
16.53743275,7.251670074,-6.124663696,0.6221063232,9.512373024,0.0
16.54737375,6.950646057,-6.285579071,0.6465055847,9.393505966,0.0
16.55731475,6.589596863,-6.280190277,0.7482939148,9.133647711,0.0
16.56725575,6.255192261,-6.118227081,0.9496252441,8.80124542,0.0
16.57719675,6.050867157,-5.902375946,1.107696533,8.525140865,0.0
16.58713775,6.030958557,-5.801934814,1.262324982,8.463354717,0.0
16.59707875,6.181695099,-5.868546295,1.426982574,8.642306936,0.0
16.60701975,6.308032379,-6.030210114,1.567091217,8.866255207,0.0
16.61696075,6.278094635,-6.147715759,1.681752777,8.946349742,0.0
16.62690175,6.027665405,-6.140381012,1.70719986,8.772203861,0.0
16.63684275,5.661526794,-5.970184937,1.540746002,8.370776073,0.0
16.64678475,5.215753784,-5.698499908,1.227297821,7.821972174,0.0
16.65672575,4.939278717,-5.455854492,0.8411009216,7.407447148,0.0
16.66666675,5.486091614,-5.751040649,0.3311114502,7.954954716,0.0
16.67660775,6.447242889,-6.882837067,-0.1158590698,9.431532764,0.0
16.68654875,7.056026917,-8.027656403,-0.3064128113,10.6922716,0.0
16.69648975,7.278614044,-8.840915222,-0.3968247986,11.458511,0.0
16.70643075,7.092550964,-9.253307648,-0.4553530884,11.66770449,0.0
16.71637175,6.808142395,-9.493857422,-0.4718188477,11.69216595,0.0
16.72631275,7.133715363,-10.12674133,-0.6207591248,12.40266612,0.0
16.73625375,8.337661743,-11.37798935,-0.9048683167,14.13485167,0.0
16.74619475,9.799671478,-13.01139267,-1.142723694,16.32898398,0.0
16.75613575,10.64002396,-14.42340637,-1.038839722,17.95338267,0.0
16.76607675,10.62206131,-15.17080215,-0.6939569092,18.53275481,0.0
16.77601775,10.03438339,-15.2233429,-0.1722917175,18.23372434,0.0
16.78595975,9.463171234,-14.88938736,0.4231700134,17.64722467,0.0
16.79590075,9.108858032,-14.31203796,1.098415833,17.00036007,0.0
16.80584175,8.865015106,-13.43680801,1.666035461,16.18369478,0.0
16.81578275,8.929830322,-12.37087463,2.03950882,15.39285565,0.0
16.82572375,9.109606476,-11.26856689,2.354304199,14.68020021,0.0
16.83566475,9.574090576,-10.28630951,2.246378632,14.23086753,0.0
16.84560575,9.923613739,-9.389075317,1.941762085,13.79866968,0.0
16.85554675,9.853409729,-8.539142761,1.838327179,13.16761517,0.0
16.86548775,9.598639526,-7.835605774,1.711690521,12.50841649,0.0
16.87542875,9.037306824,-7.182513885,1.507215729,11.64186925,0.0
16.88536975,8.356971588,-6.581064606,1.31052475,10.71759584,0.0
16.89531075,7.784262543,-6.024072876,1.046324158,9.898433795,0.0
16.90525175,7.290289764,-5.513634338,0.7818241882,9.173861648,0.0
16.91519275,6.970554657,-5.024750977,0.5480104065,8.610288614,0.0
16.92513475,6.773863678,-4.528981934,0.375718689,8.157087165,0.0
16.93507575,6.722969513,-4.096531219,0.2972817993,7.878341423,0.0
16.94501675,6.879992981,-3.722758484,0.2942880249,7.828144071,0.0
16.95495775,7.029681702,-3.444936218,0.3764671326,7.83745736,0.0
16.96489875,7.113357697,-3.188968506,0.4864883423,7.810636898,0.0
16.97483975,7.015610962,-2.967878265,0.6366261292,7.64410828,0.0
16.98478075,6.941365356,-2.860551453,0.7875123596,7.548872985,0.0
16.99472175,6.933431854,-2.929557953,0.9931846619,7.592180375,0.0
17.00466275,6.763984222,-3.007396088,1.015188904,7.471714817,0.0
17.01460375,6.409970398,-2.941533051,0.7785310364,7.095523079,0.0
17.02454475,6.099216614,-2.812052307,0.357456665,6.725760682,0.0
17.03448575,6.078709259,-2.725232849,-0.05448669434,6.661874296,0.0
17.04442675,6.397546234,-2.784060516,-0.5062472534,6.99541829,0.0
17.05436775,6.817722473,-2.959046631,-0.9720785522,7.495480865,0.0
17.06430975,7.266638947,-3.132236481,-1.505718842,8.054944828,0.0
17.07425075,7.445966034,-3.374732208,-2.104623413,8.441603365,0.0
17.08419175,7.314539337,-3.671564941,-2.557431793,8.574574754,0.0
17.09413275,6.962770844,-4.024081879,-2.814447327,8.520242164,0.0
17.10407375,6.612050171,-4.499942322,-2.781815186,8.468009453,0.0
17.11401475,6.434070282,-5.033582611,-2.313888245,8.490482501,0.0
17.12395575,6.542744293,-5.478457489,-1.383872223,8.645004435,0.0
17.13389675,6.889872437,-5.901028748,-0.2698887634,9.075534277,0.0
17.14383775,7.333998871,-6.292165375,0.8565188599,9.701160193,0.0
17.15377875,7.919730835,-6.581513672,1.827848969,10.45846502,0.0
17.16371975,8.776249695,-6.815327454,2.461930389,11.38122789,0.0
17.17366075,9.577533417,-6.8531987,2.807711334,12.10696996,0.0
17.18360175,10.18437149,-6.672674103,2.859952698,12.5070113,0.0
17.19354275,10.78267731,-6.59812912,2.710862732,12.92865865,0.0
17.20348375,11.46421005,-6.788982239,2.449655914,13.54692607,0.0
17.21342575,12.25067459,-7.195836182,2.161804504,14.37123812,0.0
17.22336675,13.1383287,-7.773784332,1.967658234,15.39217603,0.0
17.23330775,13.95398254,-8.131091309,1.92245224,16.26419679,0.0
17.24324875,14.35245392,-8.030799866,1.998344421,16.56743977,0.0
17.25318975,14.68206848,-7.722740479,2.067350922,16.7175894,0.0
17.26313075,15.32198776,-7.425159302,2.045496368,17.14877124,0.0
17.27307175,15.97642685,-7.183711395,2.053729248,17.63716894,0.0
17.28301275,16.53252045,-6.772217102,2.177970886,17.99807529,0.0
17.29295375,17.03846832,-6.064189453,2.285297699,18.22927267,0.0
17.30289475,17.45639923,-5.125940552,2.327958984,18.34177019,0.0
17.31283575,17.48289413,-4.029320984,2.246827698,18.08135088,0.0
17.32277675,17.06241852,-3.050656128,1.823507996,17.42864911,0.0
17.33271775,16.30140106,-2.490520935,1.164428558,16.53161411,0.0
17.34265875,15.4808075,-2.495610352,0.396076355,15.68567334,0.0
17.35259975,14.60572723,-2.916235657,-0.33230896,14.89772223,0.0
17.36254175,13.70011047,-3.435805206,-0.8155041504,14.14789141,0.0
17.37248275,12.84808228,-3.898942108,-0.9904902649,13.46313629,0.0
17.38242375,12.08975922,-4.170327759,-1.053509216,12.83213907,0.0
17.39236475,11.44205612,-4.380640411,-1.074914703,12.29902843,0.0
17.40230575,10.89629105,-4.572241974,-1.101259918,11.86791172,0.0
17.41224675,10.40815613,-4.824916534,-1.088835754,11.52367549,0.0
17.42218775,9.946216736,-5.045707397,-1.026714935,11.20002384,0.0
17.43212875,9.517807617,-5.246439972,-0.8201445007,10.89891881,0.0
17.44206975,9.135502625,-5.394781494,-0.4670288086,10.61975477,0.0
17.45201075,8.87624176,-5.501359863,-0.05523513794,10.44297271,0.0
17.46195175,8.771759033,-5.676944733,0.3966751099,10.45604175,0.0
17.47189275,8.785829773,-5.88665863,0.8916957092,10.61313695,0.0
17.48183375,8.691675568,-5.979315948,1.185834045,10.61619733,0.0
17.49177475,8.304730225,-5.908363495,1.276096344,10.27159799,0.0
17.50171675,7.576494598,-5.74161026,1.114582214,9.571397614,0.0
17.51165775,6.682104492,-5.554649048,0.7168592834,8.718860804,0.0
17.52159508,6.050268402,-5.500910797,0.398770752,8.186866644,0.0
17.53153608,5.941145325,-5.607339478,0.4827461243,8.183673234,0.0
17.54147708,6.348148956,-5.715265045,0.8382568359,8.582885542,0.0
17.55141808,6.824159088,-5.70763092,1.475032654,9.017866672,0.0
17.56135908,7.084018707,-5.534141693,2.177372131,9.249378072,0.0
17.57130008,7.109166412,-5.347779236,2.563569031,9.258016851,0.0
17.58124108,6.976691895,-5.304219818,2.437531128,9.096732142,0.0
17.59118208,6.715185699,-5.450166321,1.902393951,8.855344976,0.0
17.60112308,6.372099152,-5.638175354,1.12910202,8.582979686,0.0
17.61106408,6.206543427,-5.889802094,0.4040098572,8.565872633,0.0
17.62100508,6.0715242,-6.312373352,-0.1691482544,8.760027088,0.0
17.63094608,5.937253418,-6.77835434,-0.7285350037,9.040344515,0.0
17.64088708,5.991889801,-7.221882019,-1.190474396,9.459151789,0.0
17.65082908,6.124364319,-7.496261444,-1.474134521,9.791570177,0.0
17.66077008,6.374494171,-7.730823669,-1.54688324,10.13867143,0.0
17.67071108,6.759493561,-8.004005585,-1.502725067,10.58362137,0.0
17.68065208,7.213798828,-8.392298126,-1.384021912,11.15280584,0.0
17.69059308,7.863896942,-8.961264954,-1.167422333,11.97948328,0.0
17.70053408,8.583600311,-9.703271942,-0.8270301819,12.98135816,0.0
17.71047508,9.357640686,-10.6195166,-0.5454656982,14.16464277,0.0
17.72041608,10.20637573,-11.75251053,-0.3541635132,15.56974763,0.0
17.73035708,10.70873108,-12.91379562,-0.1598675537,16.77702585,0.0
17.74029808,10.5810466,-13.66957397,0.08083190918,17.28647835,0.0
17.75023908,9.985734558,-13.86865997,0.4195774841,17.09475561,0.0
17.76018008,9.280550995,-13.610896,0.8175997925,16.49404699,0.0
17.77012108,8.724008331,-13.01857773,1.238674164,15.72024176,0.0
17.78006208,8.43166626,-12.06461151,1.562001801,14.80161128,0.0
17.79000308,8.432414703,-10.85213287,1.736089783,13.85237934,0.0
17.79994508,8.458610229,-9.665400696,1.845362549,12.97587841,0.0
17.80988608,8.289761353,-8.713380432,1.697320404,12.14594741,0.0
17.81982708,7.890092468,-8.064629517,1.274000702,11.35406915,0.0
17.82976808,7.276219025,-7.714806976,0.7915539551,10.63429206,0.0
17.83970908,6.501280518,-7.601941681,0.3411405945,10.00862341,0.0
17.84965008,5.788911896,-7.673792267,0.1040336609,9.612981415,0.0
17.85959108,5.188660126,-7.777975616,0.01586700439,9.349831568,0.0
17.86953208,4.762496338,-7.805368652,-0.07529342651,9.143895246,0.0
17.87947308,4.543801117,-7.722441101,-0.1484912109,8.961265245,0.0
17.88941408,4.536316681,-7.621101837,-0.01317260742,8.869021127,0.0
17.89935508,4.7470784,-7.5154216,0.3291654968,8.895204612,0.0
17.90929608,4.888085175,-7.219487,0.6764433289,8.744823885,0.0
17.91923708,5.061275024,-6.668183441,0.8821156311,8.417796818,0.0
17.92917808,5.477858734,-5.964646454,0.9589059448,8.154964392,0.0
17.93911908,5.890101471,-5.131479034,0.8499325562,7.857974152,0.0
17.94906108,6.05401062,-4.459077301,0.4462220764,7.532166296,0.0
17.95900208,6.295757904,-4.051624603,-0.1222956848,7.487802464,0.0
17.96894308,6.616989899,-3.72320755,-0.5357359314,7.611428432,0.0
17.97888408,6.938670959,-3.453169098,-0.8481362915,7.796721534,0.0
17.98882508,7.16440155,-3.315904541,-1.113684082,7.972713762,0.0
17.99876608,7.341632996,-3.372337189,-1.145118713,8.159873162,0.0
18.00870708,7.410340118,-3.480562134,-0.950223999,8.241988782,0.0
18.01864808,7.533833313,-3.557202759,-0.9403445435,8.384305798,0.0
18.02858908,7.639363861,-3.561543732,-1.121318207,8.503048187,0.0
18.03853008,7.645950165,-3.498824158,-1.461710358,8.534572138,0.0
18.04847108,7.883655853,-3.484004974,-1.936223602,8.833984498,0.0
18.05841208,8.264014893,-3.739523621,-2.227667542,9.340261331,0.0
18.06835308,8.545729065,-4.215384064,-2.335293732,9.810838133,0.0
18.07829408,8.662635956,-4.788392487,-2.246678009,10.14975499,0.0
18.08823508,8.881929932,-5.491929474,-1.85464325,10.60611476,0.0
18.09817708,9.289232941,-6.277944946,-1.149908752,11.2705249,0.0
18.10811808,9.570797424,-6.96546524,-0.2766247559,11.84037122,0.0
18.11805908,9.720336456,-7.468569031,0.4152365112,12.26527152,0.0
18.12800008,9.542356567,-7.680079193,1.009351044,12.29060514,0.0
18.13794108,9.442364502,-7.602390747,1.399140472,12.20295811,0.0
18.14788208,9.588311005,-7.182962952,1.345252533,12.05571935,0.0
18.15782308,9.651479645,-6.771019592,0.8560697937,11.82077075,0.0
18.16776408,9.854756927,-6.621779938,0.102387085,11.87327616,0.0
18.17770508,10.19604721,-6.708749084,-0.6125262451,12.2205516,0.0
18.18764608,10.6514003,-6.769672394,-0.9662406921,12.65758325,0.0
18.19758708,11.12576385,-6.848258972,-1.064586182,13.10780745,0.0
18.20752808,11.52932465,-7.041207733,-1.190773773,13.56177995,0.0
18.21746908,11.90324707,-7.434440002,-1.31756012,14.09589137,0.0
18.22741008,12.30995132,-7.956254883,-1.40647522,14.72464145,0.0
18.23735108,12.95675629,-8.709638214,-1.41351059,15.67588414,0.0
18.24729308,13.61957794,-9.603429565,-1.229842529,16.7102147,0.0
18.25723408,13.81596954,-10.16730698,-0.7096742249,17.16854051,0.0
18.26717508,13.69367386,-10.00025436,-0.1035845947,16.95678392,0.0
18.27711608,13.7620816,-9.206155701,0.2332150269,16.55906344,0.0
18.28705708,13.92449387,-7.91329422,0.2179467773,16.0174672,0.0
18.29699808,13.92643982,-6.433321838,-0.2493814087,15.34260561,0.0
18.30693908,13.91521317,-5.086273041,-1.012793884,14.85022163,0.0
18.31688008,13.69547012,-4.093986511,-1.962868195,14.42842607,0.0
18.32682108,13.0654303,-3.649710388,-2.753823395,13.84230465,0.0
18.33676208,12.40889557,-3.543880463,-3.177442474,13.29044464,0.0
18.34670308,11.68110901,-3.711980896,-3.053799591,12.63142121,0.0
18.35664408,11.02876556,-3.954626312,-2.593207397,11.99989432,0.0
18.36658508,10.42866348,-4.096680908,-2.181713104,11.4148889,0.0
18.37652608,9.953252106,-4.167034607,-1.949695587,10.96506807,0.0
18.38646708,9.573192444,-4.220772858,-1.775158539,10.61188602,0.0
18.39640908,9.270521851,-4.222569122,-1.816322937,10.34754533,0.0
18.40635008,8.792266388,-4.243525543,-1.877845001,9.941718117,0.0
18.41629108,8.429121552,-4.19008667,-2.003882904,9.62405648,0.0
18.42623208,8.344846802,-4.170327759,-2.209704895,9.587017132,0.0
18.43617308,8.241561584,-4.170926514,-2.327360229,9.525574574,0.0
18.44611408,8.158783722,-4.2427771,-2.402054901,9.504566118,0.0
18.45605508,8.113877106,-4.374802551,-2.448009338,9.537643775,0.0
18.46599608,8.003107452,-4.485871582,-2.339485016,9.4681552,0.0
18.47593708,7.818990326,-4.583468628,-2.136058044,9.311688265,0.0
18.48587808,7.710466003,-4.719984741,-1.834435272,9.22467857,0.0
18.49581908,7.644004211,-4.851411438,-1.426234131,9.165213425,0.0
