"Time (s)","Acceleration x (m/s^2)","Acceleration y (m/s^2)","Acceleration z (m/s^2)","Absolute acceleration (m/s^2)"
1.526987500E-2,-1.167572021E-2,6.353238373E0,7.241940308E0,9.633767361E0
2.521087500E-2,-5.688171387E-3,6.280789032E0,8.012088776E0,1.018046707E1
3.515187500E-2,-1.468446350E-1,6.000721436E0,8.799750824E0,1.065203434E1
4.509387500E-2,-3.218307495E-1,5.588628387E0,9.445657654E0,1.097983565E1
5.503487500E-2,-5.397775269E-1,5.184169464E0,9.807006226E0,1.110604988E1
6.497587502E-2,-7.813751221E-1,4.957989807E0,9.891879730E0,1.109240707E1
7.491687502E-2,-1.039288788E0,4.877157898E0,9.686357117E0,1.089459979E1
8.485787502E-2,-1.247056732E0,4.861889648E0,9.349557495E0,1.061166089E1
9.479887501E-2,-1.260678406E0,4.929848328E0,9.016799469E0,1.035352052E1
1.047408750E-1,-1.135838013E0,5.123695221E0,8.696615295E0,1.015743562E1
1.146818750E-1,-9.663903809E-1,5.353916473E0,8.291707306E0,9.917194261E0
1.246228750E-1,-9.207353210E-1,5.519322510E0,7.884104919E0,9.667977290E0
1.345638750E-1,-1.017733612E0,5.594166870E0,7.572003937E0,9.469198926E0
1.445048750E-1,-1.209185486E0,5.686973877E0,7.322622528E0,9.350112411E0
1.544468750E-1,-1.289568329E0,5.768105164E0,7.077881470E0,9.221194595E0
1.643878750E-1,-1.187181244E0,5.743406525E0,6.931785278E0,9.079965031E0
1.743288750E-1,-1.039438477E0,5.716462555E0,6.869065704E0,8.996801662E0
1.842698750E-1,-9.349557495E-1,5.812712402E0,7.027586060E0,9.167809638E0
1.942108750E-1,-8.505313110E-1,5.951174469E0,7.449708252E0,9.572775674E0
2.041528750E-1,-7.087760925E-1,5.934559021E0,7.884104919E0,9.893455650E0
2.140938750E-1,-5.384303284E-1,5.796845398E0,8.160579987E0,1.002438973E1
2.240348750E-1,-4.791535950E-1,5.635930023E0,8.260422363E0,1.001138717E1
2.339758750E-1,-5.441184998E-1,5.443879395E0,8.235873413E0,9.887441463E0
2.439168750E-1,-7.143145752E-1,5.257666626E0,8.136480103E0,9.713681698E0
2.538588750E-1,-8.909472656E-1,5.054239655E0,8.318351898E0,9.774154890E0
2.637998750E-1,-1.139729919E0,4.848866730E0,8.832981720E0,1.014061433E1
2.737408750E-1,-1.374292145E0,4.831053772E0,9.260492706E0,1.053491740E1
2.836818750E-1,-1.496288452E0,4.908592529E0,9.311087494E0,1.063153376E1
2.936228750E-1,-1.576521606E0,4.965324554E0,8.927435303E0,1.033629379E1
3.035648750E-1,-1.800306244E0,5.105433197E0,8.283175049E0,9.895329181E0
3.135058750E-1,-2.008822632E0,5.303171997E0,7.613318024E0,9.493240381E0
3.234468750E-1,-2.151775360E0,5.486540680E0,7.093449097E0,9.222216974E0
3.333878750E-1,-2.141596527E0,5.615871735E0,6.839427338E0,9.105065477E0
3.433288750E-1,-1.925296326E0,5.653144226E0,6.790479126E0,9.042975857E0
3.532708750E-1,-1.550775146E0,5.695655823E0,6.846762085E0,9.040107845E0
3.632118750E-1,-1.270857239E0,5.756878510E0,6.916367340E0,9.088061701E0
3.731528750E-1,-1.230291595E0,5.872737579E0,7.084168396E0,9.283754949E0
3.830938750E-1,-1.365310822E0,5.976022797E0,7.444469147E0,9.643497446E0
3.930348750E-1,-1.526525574E0,6.093079376E0,8.034691772E0,1.019863562E1
4.029768750E-1,-1.692230988E0,6.077661438E0,8.752449188E0,1.078920669E1
4.129178750E-1,-1.786684570E0,5.818400574E0,9.329199829E0,1.113912009E1
4.228588750E-1,-1.823807373E0,5.391937408E0,9.781110077E0,1.131677413E1
4.327998750E-1,-1.857786713E0,4.936883698E0,1.016116974E1,1.144873629E1
4.427408750E-1,-1.947300568E0,4.504283295E0,1.039049286E1,1.149099166E1
4.526828750E-1,-2.114353180E0,4.067341919E0,1.044333298E1,1.140512882E1
4.626238750E-1,-2.277513885E0,3.634891205E0,1.035022659E1,1.120386960E1
4.725648750E-1,-2.424807587E0,3.254382477E0,1.015667908E1,1.093749638E1
4.825058750E-1,-2.438129883E0,2.988235931E0,9.918674011E0,1.064209216E1
4.924468750E-1,-2.399659882E0,2.834355927E0,9.554331665E0,1.025071679E1
5.023886250E-1,-2.341131592E0,2.809956665E0,9.055718536E0,9.766411408E0
5.123296250E-1,-2.430196381E0,3.058739319E0,8.815168762E0,9.642040291E0
5.222706250E-1,-2.580483856E0,3.462898865E0,8.585246887E0,9.610256479E0
5.322116250E-1,-2.562371521E0,3.821702728E0,8.312364349E0,9.500871572E0
5.421526250E-1,-2.439626770E0,4.125720520E0,8.094118195E0,9.406811252E0
5.520946250E-1,-2.258353729E0,4.415068817E0,7.940537567E0,9.361897835E0
5.620356250E-1,-2.056124268E0,4.638254700E0,7.928562469E0,9.412924970E0
5.719766250E-1,-1.839225311E0,4.810247040E0,8.054600372E0,9.560220368E0
5.819176250E-1,-1.709145813E0,4.846172333E0,8.260721741E0,9.728622172E0
5.918586250E-1,-1.659149780E0,4.803660736E0,8.620423737E0,1.000697956E1
6.017996250E-1,-1.678160248E0,4.715045013E0,9.066196747E0,1.035585799E1
6.117416250E-1,-1.713037720E0,4.565356293E0,9.513616333E0,1.069045705E1
6.216826250E-1,-1.715582428E0,4.292623444E0,9.837393036E0,1.086941309E1
6.316236250E-1,-1.714833984E0,3.955823822E0,9.959239655E0,1.085244913E1
6.415646250E-1,-1.719324646E0,3.630400543E0,9.956844635E0,1.073660283E1
6.515056250E-1,-1.714235229E0,3.394790497E0,9.822723541E0,1.053323800E1
6.614476250E-1,-1.622476044E0,3.230432281E0,9.561367035E0,1.022193039E1
6.713886250E-1,-1.594484253E0,3.085832977E0,9.251062317E0,9.881644559E0
6.813296250E-1,-1.643731842E0,3.090024261E0,8.971144409E0,9.629721508E0
6.912706250E-1,-1.733844452E0,3.225342865E0,8.845555573E0,9.573552453E0
7.012116250E-1,-1.791624298E0,3.391796722E0,8.832233276E0,9.629254762E0
7.111536250E-1,-1.804647217E0,3.567082214E0,8.872200165E0,9.731226175E0
7.210946250E-1,-1.719624023E0,3.668421478E0,8.921148376E0,9.798025887E0
7.310356250E-1,-1.548380127E0,3.714375916E0,8.912316742E0,9.778724823E0
7.409766250E-1,-1.354383545E0,3.782633972E0,8.866811371E0,9.734629856E0
7.509176250E-1,-1.174607391E0,3.873794403E0,8.703950043E0,9.599204756E0
7.608596250E-1,-1.033001862E0,3.952830048E0,8.510402527E0,9.440281214E0
7.708006250E-1,-9.961784363E-1,4.010460205E0,8.249345398E0,9.226476144E0
7.807416250E-1,-1.041234741E0,4.055067444E0,7.981252899E0,9.012665510E0
7.906826250E-1,-1.162183228E0,4.091890869E0,7.790998535E0,8.876592754E0
8.006236250E-1,-1.277144165E0,4.123924255E0,7.627538452E0,8.764541706E0
8.105656250E-1,-1.381477203E0,4.145629120E0,7.585775299E0,8.754353600E0
8.205066250E-1,-1.513502655E0,4.179159393E0,7.645052032E0,8.843239457E0
8.304476250E-1,-1.601519623E0,4.198020172E0,7.770790558E0,8.976270070E0
8.403886250E-1,-1.616638184E0,4.192182312E0,7.936046906E0,9.119690348E0
8.503296250E-1,-1.513802032E0,4.157155151E0,8.191864929E0,9.310219469E0
8.602706250E-1,-1.294208679E0,4.098776550E0,8.402776337E0,9.438304693E0
8.702126250E-1,-1.047222290E0,4.038451996E0,8.513845367E0,9.481103944E0
8.801536250E-1,-9.042695618E-1,3.956272888E0,8.482111359E0,9.402978874E0
8.900946250E-1,-8.867559814E-1,3.885769501E0,8.331674194E0,9.235926357E0
9.000356250E-1,-1.064735870E0,3.833977203E0,8.154143372E0,9.073207690E0
9.099766250E-1,-1.404828644E0,3.808230743E0,8.035140839E0,9.002202687E0
9.199186250E-1,-1.776206360E0,3.752696228E0,8.045319672E0,9.053441701E0
9.298596250E-1,-2.029180298E0,3.707639923E0,8.176596680E0,9.204395675E0
9.398006250E-1,-2.172582092E0,3.721710663E0,8.444389801E0,9.480451588E0
9.497416250E-1,-2.066452789E0,3.733087006E0,8.620723114E0,9.618889371E0
9.596826250E-1,-1.784588928E0,3.702700195E0,8.681646423E0,9.605505244E0
9.696246250E-1,-1.508862305E0,3.665577393E0,8.688532104E0,9.550063518E0
9.795656250E-1,-1.337618408E0,3.739224243E0,8.783434753E0,9.639488939E0
9.895066250E-1,-1.229543152E0,3.855083313E0,9.007668457E0,9.874792896E0
9.994476250E-1,-1.116977234E0,4.017495575E0,9.294771423E0,1.018728053E1
1.009388625E0,-1.053808594E0,4.159849548E0,9.546098785E0,1.046627263E1
1.019330625E0,-1.063388672E0,4.202061768E0,9.774374084E0,1.069235743E1
1.029271625E0,-1.096619568E0,4.180955658E0,9.908195801E0,1.080996340E1
1.039212625E0,-1.059496765E0,4.171225891E0,9.938582611E0,1.083037779E1
1.049153625E0,-9.589059448E-1,4.144730988E0,9.861492920E0,1.073998781E1
1.059094625E0,-8.786727905E-1,4.021537170E0,9.682315521E0,1.052102946E1
1.069036625E0,-8.550219727E-1,3.827989655E0,9.463919678E0,1.024452747E1
1.078977625E0,-9.262738037E-1,3.624712372E0,9.118138733E0,9.855809297E0
1.088918625E0,-1.124012604E0,3.523223419E0,8.804690552E0,9.549821114E0
1.098859625E0,-1.364113312E0,3.509901123E0,8.601113892E0,9.389322191E0
1.108800625E0,-1.579365692E0,3.461851044E0,8.461903381E0,9.278071862E0
1.118741625E0,-1.703757019E0,3.451223145E0,8.465795288E0,9.299646178E0
1.128683625E0,-1.703457642E0,3.460354156E0,8.672216034E0,9.491214346E0
1.138624625E0,-1.601519623E0,3.390748901E0,8.889863434E0,9.648404795E0
1.148565625E0,-1.407373352E0,3.278332672E0,9.073980560E0,9.750142977E0
1.158506625E0,-1.157991943E0,3.139720917E0,9.253756714E0,9.840264534E0
1.168447625E0,-9.177415466E-1,3.029849396E0,9.397607574E0,9.916514762E0
1.178389625E0,-7.945477295E-1,2.970572662E0,9.589807892E0,1.007075089E1
1.188330625E0,-7.411088562E-1,2.840942230E0,9.943522339E0,1.036792321E1
1.198271625E0,-6.827302551E-1,2.708617401E0,1.034828064E1,1.071865855E1
1.208212625E0,-4.114942932E-1,2.530936890E0,1.075423645E1,1.105570309E1
1.218153625E0,2.230361938E-2,2.341281281E0,1.096110626E1,1.120838730E1
1.228095625E0,4.173321533E-1,2.123783569E0,1.093625793E1,1.114837927E1
1.238036625E0,7.402107239E-1,1.951192474E0,1.068118835E1,1.088314516E1
1.247977625E0,9.220825195E-1,1.824256439E0,1.032956955E1,1.052986965E1
1.257918625E0,1.037791901E0,1.753154297E0,1.002809647E1,1.023295074E1
1.267859625E0,1.069076843E0,1.745071106E0,9.715097351E0,9.928308768E0
1.277800625E0,9.831555176E-1,1.757195892E0,9.372759247E0,9.586602530E0
1.287742625E0,8.005352783E-1,1.798210602E0,9.229806519E0,9.437359083E0
1.297683625E0,5.948629761E-1,1.837129669E0,9.295519867E0,9.493976879E0
1.307624625E0,4.447251892E-1,1.803599396E0,9.692494354E0,9.868900551E0
1.317565625E0,6.306385803E-1,1.797761536E0,9.994865570E0,1.017482134E1
1.327506625E0,9.815089417E-1,1.779349823E0,1.016745667E1,1.036853995E1
1.337448625E0,1.454225922E0,1.806742859E0,1.023571472E1,1.049518693E1
1.347389625E0,1.930834808E0,1.878144379E0,1.004471191E1,1.039960513E1
1.357330625E0,2.260898438E0,1.971400452E0,9.731862488E0,1.018367463E1
1.367271625E0,2.264191589E0,2.294428711E0,9.410630493E0,9.947408353E0
1.377212625E0,2.086511078E0,2.401306458E0,9.117539978E0,9.656569600E0
1.387154625E0,1.809886322E0,1.760938110E0,8.488098907E0,8.855756015E0
1.397095625E0,1.450184326E0,1.836381226E0,7.971223755E0,8.307571169E0
1.407036625E0,1.350791016E0,2.558928680E0,8.747659149E0,9.213809904E0
1.416977625E0,1.876946869E0,2.818189545E0,9.436826019E0,1.002590680E1
1.426918625E0,2.307002563E0,2.305954742E0,9.488468628E0,1.003348020E1
1.436859625E0,2.170486450E0,1.466799774E0,9.208401031E0,9.573774729E0
1.446801625E0,1.362466736E0,8.869056702E-1,8.960217133E0,9.106503629E0
1.456742625E0,1.342707825E-1,9.446855164E-1,9.157207489E0,9.206785995E0
1.466683625E0,-9.592053223E-1,1.638642426E0,9.659712524E0,9.844555343E0
1.476624625E0,-1.646875305E0,2.417772217E0,1.014919464E1,1.056238480E1
1.486565625E0,-2.030826874E0,2.582429810E0,1.025771896E1,1.077097952E1
1.496507625E0,-2.059267731E0,2.145039368E0,9.812844086E0,1.025347193E1
1.506452208E0,-1.802252197E0,1.505269775E0,9.121581573E0,9.418980862E0
1.516393208E0,-1.648970947E0,9.725276184E-1,8.663234711E0,8.872234826E0
1.526334208E0,-1.755100250E0,6.509962463E-1,8.488847351E0,8.692796003E0
1.536275208E0,-2.119143219E0,5.842350769E-1,8.517138519E0,8.796234829E0
1.546216208E0,-2.597398682E0,6.462062073E-1,8.712332611E0,9.114208792E0
1.556158208E0,-2.833457794E0,6.158193970E-1,8.771609344E0,9.238443976E0
1.566099208E0,-2.820135498E0,4.152365112E-1,8.879235535E0,9.325578227E0
1.576040208E0,-2.683170319E0,3.532653809E-2,8.991502075E0,9.383376817E0
1.585981208E0,-2.472109222E0,-3.876937866E-1,8.923094330E0,9.267321236E0
1.595922208E0,-2.361638947E0,-7.295828247E-1,9.025331726E0,9.357683601E0
1.605864208E0,-2.298619995E0,-9.857002258E-1,9.683213654E0,1.000099422E1
1.615805208E0,-2.209106140E0,-1.043779449E0,1.111154343E1,1.137699533E1
1.625746208E0,-1.847757568E0,-7.825726318E-1,1.176104279E1,1.193099976E1
1.635687208E0,-2.097737732E0,4.550537109E-2,1.121692429E1,1.141148390E1
1.645628208E0,-2.208208008E0,2.472857666E-1,1.032627640E1,1.056263779E1
1.655570208E0,-1.758094025E0,-1.664538574E-1,1.018257523E1,1.033457497E1
1.665511208E0,-8.402027893E-1,-4.858895874E-1,1.122306152E1,1.126495181E1
1.675452208E0,9.086105347E-1,-6.599775696E-1,1.254960297E1,1.259974913E1
1.685393208E0,2.388433228E0,-9.496252441E-1,1.247775238E1,1.273972943E1
1.695334208E0,2.920726318E0,-1.124461670E0,1.249825974E1,1.288415898E1
1.705276208E0,2.731819153E0,-8.384065247E-1,1.240245895E1,1.272740152E1
1.715217208E0,2.281106415E0,-2.817141724E-1,1.255843460E1,1.276703133E1
1.725158208E0,1.895957336E0,2.354603577E-1,1.279958313E1,1.294138416E1
1.735099208E0,1.597478027E0,5.918692017E-1,1.317111053E1,1.328082821E1
1.745040208E0,1.459015961E0,8.024812317E-1,1.339998459E1,1.350304746E1
1.754981208E0,1.083297272E0,7.783813477E-1,1.222313187E1,1.229570507E1
1.764923208E0,2.371069336E-1,6.409671021E-1,1.069885162E1,1.072065691E1
1.774864208E0,-7.328759766E-1,6.310876465E-1,9.096583557E0,9.147852821E0
1.784805208E0,-1.604214020E0,9.051676941E-1,7.729476471E0,7.945919562E0
1.794746208E0,-2.003583527E0,1.304986267E0,7.521858215E0,7.892761691E0
1.804687208E0,-1.614692230E0,1.246907043E0,8.164022827E0,8.415062501E0
1.814629208E0,-8.960366821E-1,1.053658905E0,8.874744873E0,8.981880393E0
1.824570208E0,-4.743635559E-1,8.051756287E-1,9.139544220E0,9.187197458E0
1.834511208E0,-4.963677979E-1,7.942483521E-1,9.264833679E0,9.312054260E0
1.844452208E0,-5.120851135E-1,9.032217407E-1,9.660011902E0,9.715650808E0
1.854393208E0,-2.984793091E-1,9.725276184E-1,1.019410126E1,1.024473525E1
1.864334208E0,5.403762817E-2,1.074465637E0,1.077279785E1,1.082638305E1
1.874276208E0,3.270698547E-1,8.659492493E-1,1.133038834E1,1.136813717E1
1.884217208E0,6.066883850E-1,5.388793945E-1,1.141690842E1,1.144570922E1
1.894158208E0,9.472302246E-1,3.650907898E-1,1.110480743E1,1.115111136E1
1.904099208E0,1.366358643E0,4.936734009E-1,1.057910065E1,1.067839032E1
1.914040208E0,2.018103333E0,1.055604858E0,1.065214874E1,1.089290207E1
1.923982208E0,2.894231415E0,1.740879822E0,1.136915771E1,1.186022703E1
1.933923208E0,3.204536133E0,2.358345795E0,1.206311462E1,1.270234550E1
1.943864208E0,2.985990601E0,2.861748962E0,1.202674026E1,1.271802769E1
1.953805208E0,2.742297363E0,3.037184143E0,1.100750977E1,1.174350687E1
1.963746208E0,2.349065094E0,2.938688965E0,9.977651367E0,1.066337313E1
1.973687208E0,2.041305084E0,2.676284637E0,9.016051025E0,9.623855880E0
1.983629208E0,1.855092316E0,2.287243652E0,8.445437622E0,8.944175068E0
1.993570208E0,2.081122284E0,1.820065155E0,8.220156097E0,8.672639356E0
2.003511208E0,2.489622803E0,1.447190552E0,8.186027069E0,8.677765920E0
2.013452208E0,2.939736786E0,1.304836578E0,8.595425720E0,9.177472102E0
2.023393208E0,3.350632324E0,1.550026703E0,9.249415741E0,9.958966377E0
2.033335208E0,3.496429138E0,2.141895905E0,1.037043457E1,1.115162087E1
2.043276208E0,3.613336029E0,2.788700867E0,1.083162552E1,1.175402744E1
2.053217208E0,3.378175049E0,3.430117035E0,1.054512131E1,1.159212461E1
2.063158208E0,2.877166901E0,4.064797211E0,1.029618896E1,1.143731494E1
2.073099208E0,2.716700592E0,4.200564880E0,9.954000549E0,1.114034714E1
2.083040208E0,2.769241333E0,3.775748291E0,9.402996368E0,1.050434736E1
2.092982208E0,3.312910767E0,3.268004150E0,9.194030914E0,1.030463164E1
2.102923208E0,4.202211456E0,2.870730286E0,9.315129089E0,1.061467397E1
2.112864208E0,4.426594849E0,2.723436584E0,9.176367645E0,1.054597421E1
2.122805208E0,3.954326935E0,2.962639160E0,8.938661957E0,1.021340344E1
2.132746208E0,3.521726532E0,3.474424896E0,8.793912964E0,1.008995002E1
2.142688208E0,3.447630615E0,3.803889771E0,8.716224518E0,1.011574536E1
2.152629208E0,3.615731049E0,3.838617554E0,8.509354706E0,1.001087475E1
2.162570208E0,3.991749115E0,3.799997864E0,8.141868896E0,9.831788947E0
2.172511208E0,4.470453644E0,3.870351563E0,7.695946198E0,9.705264802E0
2.182452208E0,4.783901825E0,4.016747131E0,7.333699493E0,9.633437727E0
2.192393208E0,4.852309570E0,4.073778534E0,7.038663025E0,9.470129719E0
2.202335208E0,4.847519531E0,3.967499542E0,6.868616638E0,9.296095565E0
2.212276208E0,4.804558868E0,3.788322144E0,6.680457916E0,9.058901068E0
2.222217208E0,4.629273376E0,3.695066071E0,6.676116943E0,8.924921439E0
2.232158208E0,4.057761841E0,3.382516022E0,7.075187073E0,8.829785836E0
2.242099208E0,3.395389252E0,3.534899139E0,7.844886475E0,9.250212100E0
2.252040208E0,4.206103363E0,3.923191681E0,8.152646484E0,9.977393606E0
2.261982208E0,4.919370117E0,3.839515686E0,7.951614532E0,1.010793039E1
2.271923208E0,5.420827332E0,3.807182922E0,7.672894135E0,1.013673099E1
2.281864208E0,5.485043793E0,3.863615570E0,7.353458405E0,9.954224289E0
2.291805208E0,5.147645416E0,3.904181213E0,7.095694427E0,9.596341161E0
2.301746208E0,5.013973389E0,3.899540863E0,6.975195007E0,9.433964886E0
2.311688208E0,5.180576935E0,3.855382690E0,6.978188782E0,9.507758502E0
2.321629208E0,5.412744141E0,3.968996429E0,6.936725006E0,9.652403100E0
2.331570208E0,5.580395508E0,4.244273987E0,6.732699280E0,9.720283704E0
2.341511208E0,5.787864075E0,4.269122314E0,6.542295227E0,9.722468962E0
2.351452208E0,5.809868317E0,3.958967285E0,6.424340515E0,9.523662262E0
2.361393208E0,5.769152985E0,3.613485718E0,6.336173859E0,9.299865825E0
2.371335208E0,5.964496765E0,3.519032135E0,6.249953156E0,9.328489871E0
2.381276208E0,6.091881866E0,3.665727081E0,6.250102844E0,9.466380791E0
2.391217208E0,6.147117004E0,3.812122650E0,6.306086426E0,9.596147799E0
2.401158208E0,6.311026154E0,3.942800903E0,6.310128021E0,9.756661607E0
2.411099208E0,6.824608154E0,4.220623169E0,6.460714874E0,1.030193055E1
2.421041208E0,7.253765717E0,4.431833954E0,6.753805389E0,1.085689442E1
2.430982208E0,7.194638672E0,4.364024963E0,6.982978821E0,1.093478544E1
2.440923208E0,6.894961853E0,4.256698151E0,7.029382324E0,1.072717083E1
2.450864208E0,6.794670410E0,4.018244019E0,6.740632782E0,1.038026788E1
2.460805208E0,6.570287018E0,3.770958252E0,6.247109070E0,9.819122637E0
2.470746208E0,6.370003510E0,3.535797272E0,5.793252869E0,9.308092493E0
2.480688208E0,6.399043121E0,3.384461975E0,5.486241302E0,9.083015984E0
2.490629208E0,6.409221954E0,3.513942719E0,5.157375183E0,8.945637946E0
2.500570208E0,6.197262726E0,3.902684326E0,4.809797974E0,8.761915703E0
2.510507583E0,5.919290771E0,4.193828888E0,4.548142090E0,8.562231044E0
2.520448583E0,5.956413574E0,4.240980835E0,4.464017029E0,8.566926470E0
2.530389583E0,6.056255951E0,4.109105072E0,4.533322906E0,8.608948670E0
2.540331583E0,5.981112213E0,3.918701019E0,4.907544708E0,8.672595693E0
2.550272583E0,6.078110504E0,3.752396851E0,6.208190002E0,9.463906832E0
2.560213583E0,6.223308563E0,3.939358063E0,5.986051941E0,9.491097369E0
2.570154583E0,6.085594940E0,4.316573639E0,4.855902100E0,8.902081720E0
2.580095583E0,6.131250000E0,4.468956757E0,4.563560028E0,8.853806028E0
2.590037583E0,5.712870026E0,4.283492432E0,4.123774567E0,8.245647823E0
2.599978583E0,5.196893005E0,4.165238342E0,3.914360046E0,7.725226335E0
2.609919583E0,4.799619141E0,4.122577057E0,3.864513702E0,7.413936312E0
2.619860583E0,4.838388519E0,3.988605652E0,3.806733856E0,7.335543685E0
2.629801583E0,5.019062805E0,3.939358063E0,3.507805481E0,7.281087328E0
2.639742583E0,5.107828217E0,4.112248535E0,3.239263916E0,7.313913304E0
2.649684583E0,5.168751526E0,4.302203522E0,3.329675903E0,7.504111480E0
2.659625583E0,5.227429504E0,4.459825745E0,3.698059845E0,7.803314136E0
2.669566583E0,5.408253479E0,4.772675171E0,4.260889435E0,8.377518293E0
2.679507583E0,5.673950958E0,5.042114868E0,4.808450775E0,8.985423790E0
2.689448583E0,5.830225983E0,5.062921600E0,5.245092773E0,9.334650949E0
2.699390583E0,5.914201355E0,4.936883698E0,5.548362122E0,9.493941254E0
2.709331583E0,5.735772400E0,4.758005676E0,5.651647339E0,9.353011316E0
2.719272583E0,5.542374573E0,4.500391388E0,5.694608002E0,9.132359982E0
2.729213583E0,5.515280914E0,4.227359161E0,5.804928589E0,9.054616776E0
2.739154583E0,5.613027649E0,3.960464172E0,6.071823578E0,9.168336676E0
2.749095583E0,5.672304382E0,3.866309967E0,6.450386353E0,9.419706676E0
2.759037583E0,5.710025940E0,4.028123474E0,6.683601379E0,9.669576121E0
2.768978583E0,5.584137726E0,3.756737823E0,6.458918610E0,9.328092132E0
2.778919583E0,5.940995636E0,3.833228760E0,6.458768921E0,9.576260640E0
2.788860583E0,6.464307404E0,4.136198730E0,6.770570526E0,1.023406251E1
2.798801583E0,6.413562927E0,3.718118134E0,6.857988739E0,1.009901982E1
2.808743583E0,6.352190552E0,3.092269592E0,6.885531464E0,9.865241993E0
2.818684583E0,6.678362274E0,3.027604065E0,6.985074463E0,1.012710098E1
2.828625583E0,6.789131927E0,3.289709015E0,7.122937775E0,1.037548747E1
2.838566583E0,6.737189941E0,3.400179291E0,7.343429260E0,1.052981010E1
2.848507583E0,6.726711731E0,3.288062439E0,7.496560822E0,1.059520785E1
2.858448583E0,6.804849243E0,3.049757996E0,7.523355103E0,1.059282158E1
2.868390583E0,6.776408386E0,2.853516083E0,7.547604675E0,1.053701101E1
2.878331583E0,6.968309326E0,2.813998260E0,7.807913361E0,1.083694755E1
2.888272583E0,7.532336426E0,2.968177643E0,8.186775513E0,1.151388135E1
2.898213583E0,7.525750122E0,3.189866638E0,8.170609131E0,1.155729283E1
2.908154583E0,6.813680878E0,3.223546600E0,7.539970551E0,1.066155034E1
2.918095583E0,6.232888641E0,3.126548309E0,6.854994965E0,9.778300523E0
2.928037583E0,6.023174744E0,2.935994568E0,6.276298370E0,9.180992285E0
2.937978583E0,5.939049683E0,2.798131256E0,5.665568390E0,8.671823040E0
2.947919583E0,5.761967926E0,2.738106079E0,5.310806122E0,8.300732555E0
2.957860583E0,5.782175903E0,2.697690125E0,5.219496002E0,8.243435491E0
2.967801583E0,5.782924347E0,2.587968292E0,5.241949310E0,8.223005926E0
2.977742583E0,5.622907104E0,2.395618286E0,5.536237335E0,8.246574750E0
2.987684583E0,6.021677856E0,2.098186798E0,5.950426025E0,8.721843952E0
2.997625583E0,6.653663635E0,1.892963562E0,6.538103943E0,9.518474352E0
3.007566583E0,7.009922791E0,1.853894806E0,7.202422485E0,1.022011904E1
3.017507583E0,7.377857666E0,1.951791229E0,7.759563904E0,1.088361634E1
3.027448583E0,7.796686707E0,2.104024658E0,8.033943329E0,1.139120225E1
3.037389583E0,8.051307220E0,2.248623962E0,8.170609131E0,1.168925623E1
3.047331583E0,7.884853363E0,2.394271088E0,8.153993683E0,1.159271580E1
3.057272583E0,7.683222656E0,2.548300781E0,7.919730835E0,1.132465822E1
3.067213583E0,7.525899811E0,2.624192963E0,7.527995453E0,1.096340605E1
3.077154583E0,7.488178253E0,2.631228333E0,7.151827698E0,1.068385771E1
3.087095583E0,7.597451019E0,2.633174286E0,7.034771118E0,1.068376682E1
3.097037583E0,7.625442810E0,2.739602966E0,7.068600769E0,1.075257733E1
3.106978583E0,7.503446503E0,2.907553711E0,7.067103882E0,1.070978689E1
3.116919583E0,7.430398407E0,2.963537292E0,7.022346954E0,1.064456343E1
3.126860583E0,7.609276428E0,2.915786591E0,7.006330261E0,1.074670010E1
3.136801583E0,7.889344025E0,2.946772156E0,7.137008514E0,1.103911708E1
3.146742583E0,7.917934570E0,3.198099518E0,7.223079529E0,1.118456107E1
3.156684583E0,7.792046356E0,3.441643066E0,7.211553497E0,1.116097654E1
3.166625583E0,7.680827637E0,3.500919800E0,7.082821198E0,1.101897948E1
3.176566583E0,7.622449036E0,3.447480927E0,6.801256714E0,1.078164862E1
3.186507583E0,7.471413116E0,3.386258240E0,6.609655151E0,1.053452894E1
3.196448583E0,7.255861359E0,3.396137695E0,6.446943512E0,1.028320747E1
3.206389583E0,7.193291473E0,3.443589020E0,6.277196503E0,1.014913511E1
3.216331583E0,7.129524078E0,3.484454041E0,6.238726501E0,1.009421824E1
3.226272583E0,7.257058868E0,3.504662018E0,6.417903900E0,1.030228372E1
3.236213583E0,7.564070435E0,3.598217468E0,6.735693054E0,1.074857625E1
3.246154583E0,7.712112579E0,3.836671600E0,6.888824615E0,1.102962529E1
3.256095583E0,7.725883942E0,4.029770050E0,6.865622864E0,1.109347135E1
3.266036583E0,7.646548920E0,4.008214874E0,6.767876129E0,1.096994276E1
3.275978583E0,7.670798492E0,3.827540588E0,6.626420288E0,1.083515862E1
3.285919583E0,7.619155884E0,3.678600311E0,6.483317871E0,1.065912976E1
3.295860583E0,7.548502808E0,3.628005524E0,6.314019928E0,1.048852546E1
3.305801583E0,7.475155334E0,3.628753967E0,6.053112488E0,1.028036835E1
3.315742583E0,7.562872925E0,3.581302643E0,5.806425476E0,1.018515352E1
3.325683583E0,7.763156433E0,3.561094666E0,5.700296173E0,1.026846481E1
3.335625583E0,7.900271301E0,3.632496185E0,5.718408508E0,1.040718555E1
3.345566583E0,8.076604614E0,3.668720856E0,5.802234192E0,1.059985738E1
3.355507583E0,8.521629181E0,3.612288208E0,6.006559296E0,1.103383635E1
3.365448583E0,9.183552704E0,3.475173340E0,6.402635651E0,1.172212495E1
3.375389583E0,9.635462952E0,3.301534424E0,7.111561432E0,1.242242254E1
3.385330583E0,9.847721558E0,3.127596130E0,7.904013519E0,1.300895488E1
3.395272583E0,9.798623657E0,2.882256317E0,8.116272125E0,1.304585376E1
3.405213583E0,9.494605865E0,2.728376312E0,7.836054840E0,1.260933516E1
3.415154583E0,9.444160767E0,2.763403473E0,7.087611237E0,1.212694539E1
3.425095583E0,9.551038513E0,2.944826202E0,6.395749969E0,1.186591571E1
3.435036583E0,9.776020660E0,3.118016052E0,6.049669647E0,1.191180536E1
3.444978583E0,1.038405624E1,3.255130920E0,5.985752563E0,1.241989272E1
3.454919583E0,1.079001205E1,3.442690887E0,6.170169067E0,1.289757601E1
3.464860583E0,1.081560883E1,3.678600311E0,6.188131714E0,1.299240042E1
3.474801583E0,1.084165466E1,3.824546814E0,5.925577698E0,1.293371970E1
3.484742583E0,1.092997101E1,4.111949158E0,5.669909363E0,1.298153551E1
3.494683583E0,1.075303894E1,4.471202087E0,5.606141968E0,1.292471749E1
3.504625583E0,1.052700897E1,4.651427307E0,5.675597534E0,1.283222901E1
3.514566208E0,1.038076309E1,4.541705475E0,5.784421234E0,1.272190473E1
3.524507208E0,1.005803421E1,4.338577881E0,5.861061859E0,1.242333918E1
3.534448208E0,9.610914001E0,4.077221375E0,5.817502441E0,1.195143241E1
3.544389208E0,9.250613251E0,3.745361481E0,5.735023956E0,1.151052031E1
3.554330208E0,8.883277130E0,3.466042328E0,5.552403717E0,1.103427610E1
3.564272208E0,8.458759918E0,3.239114227E0,5.307662659E0,1.049827430E1
3.574213208E0,7.994575195E0,2.917582855E0,5.115462341E0,9.929424819E0
3.584154208E0,7.552993469E0,2.585573273E0,4.946463776E0,9.391506981E0
3.594095208E0,7.233108673E0,2.259700928E0,4.760550385E0,8.949131205E0
3.604036208E0,7.126979370E0,1.854493561E0,4.712051239E0,8.742791785E0
3.613977208E0,7.074288940E0,1.540746002E0,4.853656769E0,8.716504247E0
3.623919208E0,7.171137543E0,1.395997009E0,5.124892731E0,8.924043187E0
3.633860208E0,7.304510193E0,1.418450317E0,5.425916748E0,9.209149962E0
3.643801208E0,7.209457855E0,1.519639893E0,5.477709045E0,9.181006718E0
3.653742208E0,7.151827698E0,1.597777405E0,5.178930359E0,8.973452608E0
3.663683208E0,7.145690460E0,1.661395111E0,4.777764587E0,8.754893507E0
3.673624208E0,7.018155670E0,1.773362274E0,4.413122864E0,8.477911074E0
3.683566208E0,6.856641541E0,1.941462708E0,4.201912079E0,8.272779205E0
3.693507208E0,6.920558624E0,2.047592010E0,4.177961884E0,8.339192420E0
3.703448208E0,6.975045319E0,2.308649139E0,4.402944031E0,8.565455865E0
3.713389208E0,6.894363098E0,2.566562805E0,4.653972015E0,8.705110148E0
3.723330208E0,6.794520721E0,2.690954132E0,4.705764313E0,8.692005738E0
3.733271208E0,6.630312195E0,2.646945648E0,4.724026337E0,8.560594950E0
3.743213208E0,6.383774872E0,2.455344086E0,4.850662994E0,8.385119419E0
3.753154208E0,6.221512299E0,2.380948792E0,5.026696930E0,8.345286961E0
3.763095208E0,6.098468170E0,2.520009613E0,5.120851135E0,8.352537269E0
3.773036208E0,5.906866608E0,2.680176544E0,5.179379425E0,8.300625920E0
3.782977208E0,5.925577698E0,2.777324524E0,5.192851410E0,8.354143183E0
3.792918208E0,5.816304932E0,2.996917877E0,5.271437988E0,8.402319816E0
3.802860208E0,5.611081696E0,3.199297028E0,5.330265656E0,8.374453488E0
3.812801208E0,5.523962860E0,3.321143646E0,5.321883087E0,8.358624312E0
3.822742208E0,5.337151337E0,3.340752869E0,5.175337830E0,8.150456169E0
3.832683208E0,5.038522339E0,3.309318237E0,4.975054321E0,7.815974671E0
3.842624208E0,4.861141205E0,3.230282593E0,4.880600739E0,7.608264126E0
3.852565208E0,4.890629883E0,3.205284576E0,5.128634949E0,7.777853579E0
3.862507208E0,4.851561127E0,3.291954346E0,5.427713013E0,7.989660652E0
3.872448208E0,4.882846069E0,3.345991974E0,5.584586792E0,8.137902535E0
3.882389208E0,4.942571869E0,3.348836060E0,5.632187805E0,8.207634197E0
3.892330208E0,4.989424438E0,3.325634308E0,5.769003296E0,8.320793160E0
3.902271208E0,5.088668060E0,3.324736176E0,6.057752838E0,8.581653845E0
3.912212208E0,5.259163513E0,3.422033844E0,6.339017944E0,8.919207643E0
3.922154208E0,5.387895813E0,3.574267273E0,6.355783081E0,9.066464934E0
3.932095208E0,5.465135193E0,3.608845367E0,6.263425140E0,9.062116864E0
3.942036208E0,5.534291382E0,3.630849609E0,6.023324432E0,8.949407087E0
3.951977208E0,5.491031342E0,3.684438171E0,5.802533569E0,8.797494283E0
3.961918208E0,5.478457489E0,3.676953735E0,5.667664032E0,8.698040056E0
3.971859208E0,5.599855042E0,3.676354980E0,5.613027649E0,8.739567599E0
3.981801208E0,5.811814270E0,3.764970703E0,5.781277771E0,9.020829350E0
3.991742208E0,5.941444702E0,3.889811096E0,6.075116730E0,9.345503667E0
4.001683208E0,6.052813110E0,3.972139893E0,6.255491638E0,9.567947403E0
4.011624208E0,6.169869690E0,3.999832306E0,6.284231873E0,9.672513670E0
4.021565208E0,6.339317322E0,4.041894836E0,6.274651794E0,9.792605022E0
4.031506208E0,6.505172424E0,4.077820129E0,6.495442657E0,1.005667244E1
4.041448208E0,6.574029236E0,4.087549896E0,6.708300018E0,1.024339854E1
4.051389208E0,6.686295776E0,4.086202698E0,6.702013092E0,1.031118728E1
4.061330208E0,6.726262665E0,4.110452271E0,6.629414062E0,1.029988146E1
4.071271208E0,6.711293793E0,4.234244843E0,6.510112152E0,1.026410512E1
4.081212208E0,6.724466400E0,4.322261810E0,6.454278259E0,1.027414733E1
4.091153208E0,6.843019867E0,4.353696442E0,6.524931335E0,1.040943430E1
4.101094208E0,7.092550964E0,4.430786133E0,6.749464417E0,1.074669321E1
4.111036208E0,7.160509644E0,4.555327148E0,6.917415161E0,1.094872304E1
4.120977208E0,7.163503418E0,4.658013611E0,6.901997223E0,1.098409931E1
4.130918208E0,7.203320618E0,4.707111511E0,6.764133911E0,1.094523797E1
4.140859208E0,7.257208557E0,4.776866455E0,6.572682037E0,1.089429568E1
4.150800208E0,7.299121399E0,4.861141205E0,6.408473511E0,1.086169415E1
4.160741208E0,7.247628479E0,4.902904358E0,6.289620667E0,1.077617362E1
4.170683208E0,7.199279022E0,4.891378326E0,6.174959106E0,1.067170653E1
4.180624208E0,7.103927307E0,4.873565369E0,6.115382996E0,1.056481575E1
4.190565208E0,6.981931000E0,4.872966614E0,6.105054474E0,1.047687235E1
4.200506208E0,6.985673218E0,4.850513306E0,6.216871948E0,1.053454349E1
4.210447208E0,7.204368439E0,4.855003967E0,6.586303711E0,1.090198994E1
4.220388208E0,7.337741089E0,4.929998016E0,7.025041351E0,1.129152473E1
4.230330208E0,7.447163544E0,4.961881714E0,7.260501709E0,1.152368865E1
4.240271208E0,7.562723236E0,4.975952454E0,7.272327118E0,1.161213276E1
4.250212208E0,7.667804718E0,5.004393311E0,7.232958984E0,1.166854221E1
4.260153208E0,7.816146240E0,5.118007050E0,7.072492676E0,1.171777670E1
4.270094208E0,7.922574921E0,5.204976196E0,6.735393677E0,1.162860691E1
4.280035208E0,7.874375153E0,5.225483551E0,6.323300629E0,1.137082201E1
4.289977208E0,7.693401489E0,5.184768219E0,5.834716644E0,1.095966087E1
4.299918208E0,7.463180237E0,5.103636932E0,5.366640015E0,1.051413307E1
4.309859208E0,7.477550354E0,4.967270508E0,5.046156464E0,1.029811782E1
4.319800208E0,7.487429810E0,4.892575836E0,5.025499420E0,1.025936391E1
4.329741208E0,7.389982452E0,4.823269958E0,5.342689819E0,1.031601223E1
4.339682208E0,7.290738831E0,4.697381744E0,5.662873993E0,1.035801187E1
4.349624208E0,7.189549255E0,4.568799133E0,5.768554230E0,1.028784535E1
4.359565208E0,7.092101898E0,4.493356018E0,5.788462830E0,1.019776738E1
4.369506208E0,7.011868744E0,4.470303955E0,5.740412750E0,1.010456626E1
4.379447208E0,6.968459015E0,4.489314423E0,5.534890137E0,9.967365442E0
4.389388208E0,6.941814423E0,4.607119446E0,5.147495728E0,9.793418674E0
4.399329208E0,6.873855743E0,4.814737701E0,4.662953339E0,9.600766936E0
4.409271208E0,6.758445740E0,4.939578094E0,4.224964142E0,9.376904743E0
4.419212208E0,6.663094025E0,4.924908600E0,4.003125458E0,9.201986749E0
4.429153208E0,6.568041687E0,4.861590271E0,3.973187714E0,9.086278236E0
4.439094208E0,6.450685730E0,4.812192993E0,4.021986237E0,8.996939540E0
4.449035208E0,6.446793823E0,4.691693573E0,4.085753632E0,8.959158550E0
4.458976208E0,6.482270050E0,4.524640961E0,4.204157410E0,8.953610465E0
4.468917208E0,6.444249115E0,4.445156250E0,4.371060333E0,8.966266178E0
4.478859208E0,6.411766663E0,4.418212280E0,4.484374695E0,8.985597804E0
4.488800208E0,6.461163940E0,4.481231232E0,4.430636444E0,9.025442489E0
4.498741208E0,6.483766937E0,4.661905518E0,4.225263519E0,9.034680324E0
4.508682125E0,6.479425964E0,4.861290894E0,4.019740906E0,9.042866079E0
4.518623125E0,6.388265533E0,5.019511871E0,3.711681519E0,8.932077902E0
4.528565125E0,6.365512848E0,5.132975922E0,3.398233337E0,8.855234918E0
4.538506125E0,6.322402496E0,5.171595612E0,3.167413330E0,8.760746640E0
4.548447125E0,6.291566620E0,5.155728607E0,3.069516907E0,8.694094665E0
4.558388125E0,6.302344208E0,5.059927826E0,3.090473328E0,8.652943864E0
4.568329125E0,6.350244598E0,4.820276184E0,3.254532166E0,8.611193214E0
4.578270125E0,6.431076508E0,4.587360535E0,3.517684937E0,8.647353875E0
4.588211125E0,6.566395111E0,4.492008820E0,3.904929657E0,8.862514520E0
4.598153125E0,6.543492737E0,4.499942322E0,4.282743988E0,9.022675555E0
4.608094125E0,6.547085266E0,4.437821503E0,4.531676331E0,9.115628093E0
4.618035125E0,6.525679779E0,4.297114105E0,4.611011353E0,9.072547156E0
4.627976125E0,6.444847870E0,4.218228149E0,4.563410339E0,8.952889294E0
4.637917125E0,6.401737518E0,4.279600525E0,4.462969208E0,8.900298762E0
4.647858125E0,6.384673004E0,4.425696716E0,4.308340759E0,8.883278724E0
4.657800125E0,6.461014252E0,4.514462128E0,4.185296631E0,8.924224412E0
4.667741125E0,6.544839935E0,4.512665863E0,4.230352936E0,9.005274506E0
4.677682125E0,6.650520172E0,4.531975708E0,4.370611267E0,9.158081962E0
4.687623125E0,6.759643250E0,4.584217072E0,4.630620575E0,9.388848168E0
4.697564125E0,6.905889130E0,4.568350067E0,4.896767120E0,9.619742992E0
4.707505125E0,7.238347778E0,4.586462402E0,5.118905182E0,9.981608397E0
4.717446125E0,7.643854523E0,4.714146881E0,5.324427795E0,1.044036513E1
4.727388125E0,8.148604889E0,4.924758911E0,5.509293365E0,1.100024206E1
4.737329125E0,8.723708954E0,5.074896698E0,5.662724304E0,1.157255896E1
4.747270125E0,9.248667297E0,5.101990356E0,5.767356720E0,1.203455674E1
4.757211125E0,9.604627075E0,4.944068756E0,5.655838623E0,1.219348956E1
4.767152125E0,9.693242798E0,4.630321198E0,5.316793671E0,1.198612219E1
4.777093125E0,9.496701508E0,4.199367371E0,4.929848328E0,1.149458265E1
4.787035125E0,9.232351227E0,3.756737823E0,4.624932404E0,1.098814761E1
4.796976125E0,9.211245117E0,3.347039795E0,4.441414032E0,1.075991964E1
4.806917125E0,9.314829712E0,3.146456909E0,4.674928436E0,1.088674421E1
4.816858125E0,9.164991302E0,3.329675903E0,5.097050629E0,1.100289654E1
4.826799125E0,8.922345886E0,3.512595520E0,5.265749817E0,1.093959344E1
4.836740125E0,8.713829498E0,3.469934235E0,5.256319427E0,1.075175158E1
4.846682125E0,8.587192841E0,3.347189484E0,5.269192657E0,1.061640003E1
4.856623125E0,8.301437073E0,3.308719482E0,5.200485535E0,1.033956149E1
4.866564125E0,7.768694916E0,3.334915009E0,4.903802490E0,9.773513067E0
4.876505125E0,7.274273071E0,3.326382751E0,4.452041931E0,9.154263940E0
4.886446125E0,6.843618622E0,3.288810883E0,3.938310242E0,8.553460143E0
4.896387125E0,6.491999817E0,3.358865204E0,3.484304352E0,8.097432550E0
4.906328125E0,6.283483429E0,3.449277191E0,3.185375977E0,7.843870043E0
4.916270125E0,6.212680664E0,3.459306335E0,3.050057373E0,7.737380134E0
4.926211125E0,6.455475769E0,3.521427155E0,3.031346283E0,7.953783810E0
4.936152125E0,6.620133362E0,3.752546539E0,3.020269318E0,8.187172773E0
4.946093125E0,6.699318695E0,4.037853241E0,3.034190369E0,8.389960725E0
4.956034125E0,6.941664734E0,4.175417175E0,3.127745819E0,8.683525308E0
4.965975125E0,7.176526337E0,4.291575623E0,3.330574036E0,9.000715249E0
4.975917125E0,7.308252411E0,4.373455353E0,3.438798981E0,9.184933503E0
4.985858125E0,7.448361053E0,4.413122864E0,3.520529022E0,9.346007725E0
4.995799125E0,7.542814636E0,4.378245392E0,3.570974121E0,9.424167948E0
5.005740125E0,7.582182770E0,4.344116364E0,3.589385834E0,9.446932476E0
5.015681125E0,7.621700592E0,4.385879517E0,3.580404510E0,9.494501330E0
5.025622125E0,7.702831879E0,4.472100220E0,3.613186340E0,9.611889245E0
5.035564125E0,7.871830444E0,4.597539368E0,3.727548523E0,9.848741076E0
5.045505125E0,8.224048004E0,4.733007660E0,3.860771484E0,1.024411458E1
5.055446125E0,8.449329529E0,4.908742218E0,4.020339661E0,1.056645876E1
5.065387125E0,8.564290466E0,5.041067047E0,4.204456787E0,1.079059243E1
5.075328125E0,8.637488251E0,5.071902924E0,4.337380371E0,1.091527696E1
5.085269125E0,8.639284515E0,5.073998566E0,4.418511658E0,1.095015724E1
5.095210125E0,8.643026733E0,4.975353699E0,4.480033722E0,1.093282935E1
5.105152125E0,8.614136810E0,4.833448792E0,4.615202637E0,1.090255363E1
5.115093125E0,8.621770935E0,4.728367310E0,4.658462677E0,1.088088535E1
5.125034125E0,8.596174164E0,4.709356842E0,4.655169525E0,1.085093800E1
5.134975125E0,8.497080231E0,4.666545868E0,4.596341858E0,1.072862439E1
5.144916125E0,8.438551941E0,4.648732910E0,4.465214539E0,1.061875781E1
5.154857125E0,8.299491119E0,4.614603882E0,4.392615509E0,1.046284822E1
5.164799125E0,8.082442474E0,4.675976257E0,4.423152008E0,1.033222648E1
5.174740125E0,7.856711884E0,4.777614899E0,4.391268311E0,1.019003254E1
5.184681125E0,7.777975616E0,4.797074432E0,4.374503174E0,1.013139210E1
5.194622125E0,7.745493164E0,4.804708557E0,4.266876984E0,1.006400158E1
5.204563125E0,7.965535583E0,4.877157898E0,4.108955383E0,1.020391791E1
5.214504125E0,8.451874237E0,4.924160156E0,4.132456512E0,1.061879128E1
5.224446125E0,9.132359161E0,4.982688446E0,4.669988708E0,1.140333120E1
5.234387125E0,9.763147430E0,5.145250397E0,5.562133484E0,1.235839708E1
5.244328125E0,1.036669235E1,5.339246979E0,6.515800323E0,1.335782626E1
5.254269125E0,1.091111023E1,5.351970520E0,7.289691010E0,1.417164457E1
5.264210125E0,1.109597580E1,5.169350281E0,7.732170868E0,1.447858168E1
5.274151125E0,1.094104797E1,4.884342957E0,7.719597015E0,1.425326331E1
5.284092125E0,1.054003189E1,4.440515900E0,7.327562256E0,1.358321105E1
5.294034125E0,9.980196075E0,4.054019623E0,6.747967529E0,1.271119407E1
5.303975125E0,9.221274261E0,3.786076813E0,6.009104004E0,1.163939893E1
5.313916125E0,8.388555908E0,3.504961395E0,5.217999115E0,1.048237279E1
5.323857125E0,7.778424683E0,3.205434265E0,4.413721619E0,9.500507244E0
5.333798125E0,7.247628479E0,2.934347992E0,3.692970428E0,8.647343366E0
5.343739125E0,6.785988464E0,2.749033356E0,3.181484070E0,7.983023532E0
5.353681125E0,6.476731567E0,2.615361328E0,2.802621918E0,7.526144849E0
5.363622125E0,6.341712341E0,2.474953308E0,2.557581482E0,7.272133960E0
5.373563125E0,6.340963898E0,2.355801086E0,2.521955566E0,7.219271555E0
5.383504125E0,6.386319580E0,2.326462097E0,2.709814911E0,7.317144287E0
5.393445125E0,6.455475769E0,2.413730621E0,3.240311737E0,7.615699775E0
5.403386125E0,6.577322388E0,2.530038757E0,3.923041992E0,8.065514514E0
5.413327125E0,6.757547607E0,2.587369537E0,4.523443451E0,8.533491164E0
5.423269125E0,6.905140686E0,2.666405182E0,4.983736267E0,8.923469710E0
5.433210125E0,7.134014740E0,2.836451569E0,5.248086548E0,9.299571830E0
5.443151125E0,7.514822845E0,3.091221771E0,5.213807831E0,9.654636530E0
5.453092125E0,7.756719818E0,3.383264465E0,5.050198059E0,9.854830349E0
5.463033125E0,7.962541809E0,3.532504120E0,4.865182800E0,9.977507760E0
5.472974125E0,8.180338898E0,3.599265289E0,4.733007660E0,1.011306168E1
5.482915125E0,8.375832367E0,3.711082764E0,4.703219604E0,1.029791133E1
5.492857125E0,8.506660309E0,3.855981445E0,4.641248474E0,1.042943191E1
5.502798125E0,8.576864319E0,4.030817871E0,4.579576721E0,1.052533217E1
5.512739333E0,8.565487976E0,4.148772583E0,4.558320923E0,1.055263890E1
5.522680333E0,8.487799530E0,4.195026398E0,4.491559753E0,1.047926984E1
5.532621333E0,8.291407928E0,4.201163635E0,4.404590607E0,1.028579796E1
5.542562333E0,8.035440216E0,4.159699860E0,4.271217957E0,1.000573362E1
5.552504333E0,7.841593323E0,4.077969818E0,4.130360870E0,9.756039391E0
5.562445333E0,7.552095337E0,4.049379272E0,3.922742615E0,9.424411180E0
5.572386333E0,7.307204590E0,4.075125732E0,3.608096924E0,9.111544988E0
5.582327333E0,7.093149719E0,4.122876434E0,3.322490845E0,8.851543845E0
5.592268333E0,6.900200958E0,4.199067993E0,3.103945312E0,8.653289651E0
5.602209333E0,6.777306519E0,4.260290680E0,2.968776398E0,8.537891638E0
5.612150333E0,6.680158539E0,4.292324066E0,2.884351959E0,8.447961305E0
5.622092333E0,6.583908691E0,4.313280487E0,2.879861298E0,8.381279336E0
5.632033333E0,6.626719666E0,4.321513367E0,3.029849396E0,8.471651472E0
5.641974333E0,6.696923676E0,4.398303680E0,3.278033295E0,8.656752524E0
5.651915333E0,6.677164764E0,4.459676056E0,3.483855286E0,8.752741711E0
5.661856333E0,6.580316162E0,4.485721893E0,3.597918091E0,8.738837239E0
5.671797333E0,6.574627991E0,4.438869324E0,3.552712097E0,8.692011121E0
5.681739333E0,6.560257874E0,4.405339050E0,3.422632599E0,8.611527705E0
5.691680333E0,6.493945770E0,4.372856598E0,3.290008392E0,8.492194164E0
5.701621333E0,6.443800049E0,4.373305664E0,3.231779480E0,8.431652276E0
5.711562333E0,6.484665070E0,4.481829987E0,3.218307495E0,8.514410386E0
5.721503333E0,6.758595428E0,4.639003143E0,3.366199951E0,8.861730330E0
5.731444333E0,7.147636414E0,4.854554901E0,3.594774628E0,9.358301887E0
5.741385333E0,7.586374054E0,5.061424713E0,3.879931641E0,9.910850667E0
5.751327333E0,7.952512665E0,5.272036743E0,4.156706085E0,1.040745092E1
5.761268333E0,8.296347656E0,5.438041534E0,4.321213989E0,1.082010030E1
5.771209333E0,8.472531281E0,5.531596985E0,4.532424774E0,1.108716491E1
5.781150333E0,8.374784546E0,5.568719788E0,4.707710266E0,1.110451225E1
5.791091333E0,8.005502472E0,5.487738190E0,4.778213654E0,1.081825614E1
5.801032333E0,7.699089661E0,5.170098724E0,4.767436066E0,1.042757638E1
5.810974333E0,7.570656738E0,4.829706573E0,4.706512756E0,1.013864741E1
5.820915333E0,7.561376038E0,4.691992950E0,4.715943146E0,1.007121270E1
5.830856333E0,7.614515533E0,4.729415131E0,4.712949371E0,1.012719636E1
5.840797333E0,7.741301880E0,4.774920502E0,4.797673187E0,1.028325282E1
5.850738333E0,7.912994843E0,4.740342407E0,4.980143738E0,1.048275561E1
5.860679333E0,8.156688080E0,4.700525208E0,5.192102966E0,1.075101999E1
5.870620333E0,8.451574860E0,4.716990967E0,5.455704803E0,1.111052817E1
5.880562333E0,8.620274048E0,4.870571594E0,5.711971893E0,1.143058245E1
5.890503333E0,8.832532654E0,4.906646576E0,5.924829254E0,1.171291660E1
5.900444333E0,9.137598267E0,4.745132446E0,6.088289337E0,1.196157394E1
5.910385333E0,9.331594849E0,4.515210571E0,6.107150116E0,1.203175263E1
5.920326333E0,9.355095978E0,4.384532318E0,5.931415558E0,1.191317065E1
5.930267333E0,9.204509125E0,4.345912628E0,5.560037842E0,1.159844669E1
5.940208333E0,8.970395966E0,4.289779358E0,5.103487244E0,1.117657339E1
5.950150333E0,8.663534088E0,4.207600250E0,4.627477112E0,1.068523594E1
5.960091333E0,8.321794739E0,4.070036316E0,4.281995544E0,1.020553522E1
5.970032333E0,8.050858154E0,3.960015106E0,3.983965302E0,9.816823121E0
5.979973333E0,7.756270752E0,3.896996155E0,3.761527863E0,9.460201207E0
5.989914333E0,7.546706543E0,3.820205841E0,3.629502411E0,9.204348976E0
5.999855333E0,7.439529419E0,3.694916382E0,3.591032410E0,9.049559040E0
6.009796333E0,7.428452454E0,3.542832642E0,3.694167938E0,9.021111114E0
6.019738333E0,7.518265686E0,3.372486877E0,3.972439270E0,9.147582217E0
6.029679333E0,7.746241608E0,3.288661194E0,4.400998077E0,9.496753949E0
6.039620333E0,8.004005585E0,3.285068665E0,4.827910309E0,9.907799931E0
6.049561333E0,8.254883881E0,3.173550568E0,5.014422455E0,1.016656105E1
6.059502333E0,8.449479218E0,2.938988342E0,5.021757202E0,1.025911287E1
6.069443333E0,8.502618713E0,2.723286896E0,4.911286926E0,1.018977702E1
6.079385333E0,8.534801788E0,2.525847473E0,4.760550385E0,1.009383906E1
6.089326333E0,8.641230469E0,2.402054901E0,4.630171509E0,1.009352366E1
6.099267333E0,8.672216034E0,2.362537079E0,4.485123138E0,1.004516013E1
6.109208333E0,8.566386108E0,2.363285522E0,4.312831421E0,9.877682131E0
6.119149333E0,8.449030151E0,2.399959259E0,4.045038300E0,9.669966380E0
6.129090333E0,8.209079132E0,2.418520660E0,3.800596619E0,9.363907146E0
6.139031333E0,8.064030762E0,2.330952759E0,3.643573151E0,9.150822815E0
6.148973333E0,7.999215546E0,2.223925323E0,3.561843109E0,9.034379864E0
6.158914333E0,7.947722626E0,2.219734039E0,3.590433655E0,8.999151514E0
6.168855333E0,7.762557678E0,2.289488983E0,3.596271515E0,8.856197283E0
6.178796333E0,7.498057709E0,2.422262878E0,3.472179565E0,8.610705998E0
6.188737333E0,7.265291748E0,2.460732880E0,3.275488586E0,8.340773104E0
6.198678333E0,7.261100464E0,2.414628754E0,3.025508423E0,8.228469674E0
6.208619333E0,7.281308441E0,2.427052917E0,2.770139465E0,8.159761708E0
6.218561333E0,7.332352295E0,2.488874359E0,2.608775024E0,8.170899148E0
6.228502333E0,7.474556580E0,2.560425568E0,2.590513000E0,8.314777974E0
6.238443333E0,7.617209930E0,2.559527435E0,2.842289429E0,8.523595310E0
6.248384333E0,7.927215271E0,2.481389923E0,3.401526489E0,8.975991330E0
6.258325333E0,8.366701355E0,2.450254669E0,3.973337402E0,9.580858501E0
6.268266333E0,8.839717712E0,2.315534821E0,4.399800568E0,1.014201931E1
6.278207333E0,9.165590057E0,2.161056061E0,4.646038513E0,1.050066085E1
6.288149333E0,9.332492981E0,2.197879486E0,4.707710266E0,1.068122818E1
6.298090333E0,9.335187378E0,2.323019257E0,4.615951080E0,1.067001154E1
6.308031333E0,9.184151459E0,2.449356537E0,4.400698700E0,1.047445151E1
6.317972333E0,8.970246277E0,2.550995178E0,4.134552155E0,1.020134384E1
6.327913333E0,8.699309692E0,2.731819153E0,3.910468140E0,9.921319775E0
6.337854333E0,8.462502136E0,2.933599548E0,3.756588135E0,9.712461229E0
6.347795333E0,8.515491943E0,3.014880524E0,3.712130585E0,9.766423147E0
6.357737333E0,8.547225952E0,2.987038422E0,3.677253113E0,9.772392771E0
6.367678333E0,8.478518829E0,2.941383362E0,3.576811981E0,9.660776448E0
6.377619333E0,8.460556183E0,2.954555969E0,3.472628632E0,9.610908464E0
6.387560333E0,8.370742950E0,2.991229706E0,3.378773804E0,9.509621712E0
6.397501333E0,8.133336639E0,2.958447876E0,3.387306061E0,9.293945399E0
6.407442333E0,7.833360443E0,2.824925537E0,3.527714081E0,9.043589263E0
6.417383333E0,7.511978760E0,2.697241058E0,3.754492493E0,8.820495910E0
6.427325333E0,7.219936066E0,2.685715027E0,3.978127441E0,8.669835058E0
6.437266333E0,7.031028900E0,2.768642578E0,4.169878693E0,8.630680010E0
6.447207333E0,6.856791229E0,2.957400055E0,4.332740021E0,8.633332910E0
6.457148333E0,6.830296326E0,3.174598389E0,4.488865356E0,8.768177405E0
6.467089333E0,6.970554657E0,3.325334930E0,4.733905792E0,9.058495939E0
6.477030333E0,7.023544464E0,3.404819641E0,5.013674011E0,9.276847564E0
6.486971333E0,7.104376373E0,3.382965088E0,5.229824524E0,9.448157545E0
6.496913333E0,7.236850891E0,3.340303802E0,5.323679352E0,9.584946643E0
6.506854333E0,7.491471405E0,3.271446991E0,5.369334412E0,9.780299650E0
6.516795000E0,7.794740753E0,3.360062714E0,5.466183014E0,1.009589826E1
6.526736000E0,8.046666870E0,3.631598053E0,5.303770752E0,1.029889976E1
6.536677000E0,8.218659210E0,3.847000122E0,5.136867828E0,1.042752033E1
6.546618000E0,8.241262207E0,3.946393433E0,5.256469116E0,1.054148431E1
6.556559000E0,8.304879913E0,4.019441528E0,5.510790253E0,1.074689489E1
6.566501000E0,8.261919250E0,3.947740631E0,5.861211548E0,1.087187963E1
6.576442000E0,8.219257965E0,3.726650391E0,6.105802917E0,1.089609810E1
6.586383000E0,8.117769012E0,3.464844818E0,6.269712067E0,1.082647739E1
6.596324000E0,8.002209320E0,3.208727417E0,6.324049072E0,1.069228144E1
6.606265000E0,7.979606323E0,3.050356750E0,6.214626617E0,1.056410798E1
6.616206000E0,7.783663788E0,2.988834686E0,5.917793884E0,1.022442366E1
6.626147000E0,7.608078918E0,2.850073242E0,5.618566132E0,9.877958680E0
6.636089000E0,7.539820862E0,2.768343201E0,5.423970795E0,9.691856473E0
6.646030000E0,7.532486115E0,2.892435150E0,5.491929474E0,9.760420970E0
6.655971000E0,7.483986969E0,3.005450134E0,5.703888702E0,9.878114081E0
6.665912000E0,7.311844940E0,2.903661804E0,5.752836914E0,9.746253683E0
6.675853000E0,7.082372131E0,2.754571838E0,5.698050842E0,9.498181111E0
6.685794000E0,6.755002899E0,2.704725494E0,5.624104614E0,9.196529611E0
6.695735000E0,6.566395111E0,2.780318298E0,5.636079712E0,9.089175381E0
6.705677000E0,6.446195068E0,2.893183594E0,5.738466797E0,9.102414149E0
6.715618000E0,6.317612457E0,2.982847137E0,5.865402832E0,9.122091569E0
6.725559000E0,6.201004944E0,3.042123871E0,5.794001312E0,9.015399668E0
6.735500000E0,6.099366302E0,3.070864105E0,5.674250336E0,8.878603072E0
6.745441000E0,6.066734161E0,3.092568970E0,5.627098389E0,8.833656236E0
6.755382000E0,6.161786499E0,3.171454926E0,5.629343719E0,8.928339707E0
6.765323000E0,6.327940979E0,3.330424347E0,5.980962524E0,9.322364297E0
6.775265000E0,6.488257599E0,3.529809723E0,6.459966431E0,9.812655585E0
6.785206000E0,6.670428772E0,3.663930817E0,6.777007141E0,1.019052672E1
6.795147000E0,6.922205200E0,3.710933075E0,7.100035400E0,1.058765563E1
6.805088000E0,7.179819489E0,3.692820740E0,7.322173462E0,1.089958518E1
6.815029000E0,7.318580933E0,3.729494476E0,7.324867859E0,1.100565514E1
6.824970000E0,7.212152252E0,3.840862885E0,7.059469757E0,1.079830918E1
6.834911000E0,7.041656799E0,3.901037750E0,6.763086090E0,1.051391266E1
6.844853000E0,6.844816132E0,4.026476898E0,6.500083008E0,1.026231471E1
6.854794000E0,6.818620605E0,4.215234375E0,6.363117828E0,1.023479635E1
6.864735000E0,7.029232635E0,4.480632477E0,6.246510315E0,1.041657669E1
6.874676000E0,7.098987579E0,4.795128479E0,6.298302612E0,1.063284993E1
6.884617000E0,7.023993530E0,4.979544983E0,6.482270050E0,1.077739200E1
6.894558000E0,6.997798004E0,5.012925568E0,6.686146088E0,1.089968574E1
6.904499000E0,6.806046753E0,4.997357941E0,6.794071655E0,1.083767819E1
6.914441000E0,6.577472076E0,4.870272217E0,6.762038269E0,1.061639543E1
6.924382000E0,6.344406738E0,4.752766571E0,6.673721924E0,1.036237672E1
6.934323000E0,6.231242065E0,4.759502563E0,6.567293243E0,1.022793151E1
6.944264000E0,6.225254517E0,4.826862488E0,6.533613281E0,1.023428052E1
6.954205000E0,6.146069183E0,4.927902374E0,6.573879547E0,1.026032556E1
6.964146000E0,6.054609375E0,4.950655060E0,6.638545074E0,1.025853600E1
6.974087000E0,6.013444977E0,4.873565369E0,6.673422546E0,1.021996714E1
6.984029000E0,6.016139374E0,4.717889099E0,6.693331146E0,1.016135288E1
6.993970000E0,6.026018829E0,4.591551819E0,6.733447723E0,1.013580630E1
7.003911000E0,6.030958557E0,4.485272827E0,6.642287292E0,1.003045931E1
7.013852000E0,6.043831787E0,4.355193329E0,6.421197052E0,9.835008042E0
7.023793000E0,6.005361786E0,4.329147491E0,6.147266693E0,9.622617938E0
7.033734000E0,5.981561279E0,4.390220490E0,5.778283997E0,9.404343530E0
7.043675000E0,5.862708435E0,4.475243683E0,5.372328186E0,9.124750208E0
7.053617000E0,5.787864075E0,4.557123413E0,5.081183624E0,8.949031868E0
7.063558000E0,5.795498199E0,4.678221588E0,4.865332489E0,8.896348511E0
7.073499000E0,5.808970184E0,4.748275909E0,4.828509064E0,8.922149881E0
7.083440000E0,5.869294739E0,4.716691589E0,4.912035370E0,8.990210885E0
7.093381000E0,5.922733612E0,4.644841003E0,5.090464325E0,9.086591684E0
7.103322000E0,5.995033264E0,4.561763763E0,5.342689819E0,9.235499281E0
7.113263000E0,6.031856689E0,4.517455902E0,5.553900604E0,9.361437650E0
7.123205000E0,6.158643036E0,4.542304230E0,5.805078278E0,9.605224910E0
7.133146000E0,6.199508057E0,4.609963531E0,6.000422058E0,9.782163809E0
7.143087000E0,6.174659729E0,4.632267151E0,6.004014587E0,9.779187742E0
7.153028000E0,6.242169342E0,4.666845245E0,5.833070068E0,9.734928303E0
7.162969000E0,6.274801483E0,4.737198944E0,5.689967651E0,9.705149116E0
7.172910000E0,6.303092651E0,4.722679138E0,5.665119324E0,9.701868488E0
7.182851000E0,6.325995026E0,4.621639252E0,5.754333801E0,9.720602859E0
7.192793000E0,6.365961914E0,4.507576447E0,5.812862091E0,9.727953649E0
7.202734000E0,6.392157440E0,4.410129089E0,5.937552795E0,9.775655913E0
7.212675000E0,6.451883240E0,4.355193329E0,6.123316498E0,9.904014903E0
7.222616000E0,6.514453125E0,4.360582123E0,6.287674713E0,1.004926014E1
7.232557000E0,6.569089508E0,4.327800293E0,6.445446625E0,1.016988567E1
7.242498000E0,6.540498962E0,4.336631927E0,6.540049896E0,1.021551544E1
7.252439000E0,6.468498688E0,4.310137024E0,6.478078766E0,1.011851081E1
7.262380000E0,6.353537750E0,4.268373871E0,6.264622650E0,9.891003710E0
7.272322000E0,6.243217163E0,4.250111847E0,5.990093536E0,9.639628200E0
7.282263000E0,6.206094360E0,4.338577881E0,5.778583374E0,9.525276429E0
7.292204000E0,6.134842529E0,4.463268585E0,5.676495667E0,9.475213052E0
7.302145000E0,6.101162567E0,4.524042206E0,5.706732788E0,9.500417973E0
7.312086000E0,6.077661438E0,4.544549561E0,5.764812012E0,9.530160376E0
7.322027000E0,6.011349335E0,4.543651428E0,5.773793335E0,9.493038428E0
7.331968000E0,5.976022797E0,4.451742554E0,5.796845398E0,9.441095106E0
7.341910000E0,5.946833496E0,4.333787842E0,5.839656372E0,9.394047702E0
7.351851000E0,5.929020538E0,4.247866516E0,5.870941315E0,9.362991317E0
7.361792000E0,5.914051666E0,4.214036865E0,5.821993103E0,9.307508663E0
7.371733000E0,5.975873108E0,4.193230133E0,5.778283997E0,9.310360052E0
7.381674000E0,6.031407623E0,4.175566864E0,5.857169952E0,9.387208126E0
7.391615000E0,6.074368286E0,4.173620911E0,6.014343109E0,9.512590847E0
7.401556000E0,6.129154358E0,4.067341919E0,6.223458252E0,9.635415717E0
7.411498000E0,6.139482880E0,3.863465881E0,6.512507172E0,9.748454662E0
7.421439000E0,6.159541168E0,3.675157471E0,6.769373016E0,9.862613288E0
7.431380000E0,6.221063232E0,3.495531006E0,6.976991272E0,9.979918435E0
7.441321000E0,6.369704132E0,3.314257965E0,7.218738556E0,1.018172986E1
7.451262000E0,6.604715424E0,3.207829285E0,7.430997162E0,1.044663359E1
7.461203000E0,6.890171814E0,3.167712708E0,7.531737671E0,1.068812162E1
7.471144000E0,7.231162720E0,3.232078857E0,7.414980469E0,1.084979186E1
7.481086000E0,7.636070709E0,3.392096100E0,7.236850891E0,1.105386370E1
7.491027000E0,8.037835236E0,3.523822174E0,7.123835907E0,1.130367887E1
7.500968000E0,8.355175323E0,3.603905640E0,7.157515869E0,1.157700842E1
7.510909625E0,8.582402802E0,3.559897156E0,7.086563416E0,1.168545620E1
7.520850625E0,8.687184906E0,3.469784546E0,6.742878113E0,1.153139157E1
7.530791625E0,8.671766968E0,3.390748901E0,6.253994751E0,1.121646873E1
7.540732625E0,8.661139069E0,3.344195709E0,5.746250610E0,1.091871654E1
7.550673625E0,8.672066345E0,3.330723724E0,5.261408844E0,1.067618276E1
7.560615625E0,8.724307709E0,3.303480377E0,4.920417938E0,1.054689719E1
7.570556625E0,8.690328369E0,3.353326721E0,4.768334198E0,1.046439766E1
7.580497625E0,8.623267822E0,3.444936218E0,4.683760071E0,1.040028566E1
7.590438625E0,8.586145020E0,3.443289642E0,4.666096802E0,1.036101294E1
7.600379625E0,8.460556183E0,3.370241547E0,4.631818085E0,1.021730286E1
7.610320625E0,8.279881897E0,3.343596954E0,4.517006836E0,1.000696935E1
7.620261625E0,8.047265625E0,3.302133179E0,4.485123138E0,9.786669359E0
7.630202625E0,7.912096710E0,3.320694580E0,4.699178009E0,9.783177439E0
7.640144625E0,7.864795074E0,3.439996490E0,5.064568176E0,9.966866520E0
7.650085625E0,7.829019470E0,3.584296417E0,5.373076630E0,1.014941767E1
7.660026625E0,7.827821960E0,3.693569183E0,5.561983795E0,1.028848452E1
7.669967625E0,7.872878265E0,3.854634247E0,5.661077728E0,1.043495177E1
7.679908625E0,7.951464844E0,4.046235809E0,5.661526794E0,1.056648963E1
7.689849625E0,7.933202820E0,4.232747955E0,5.560037842E0,1.057193847E1
7.699790625E0,7.847431183E0,4.349056091E0,5.349874878E0,1.044593827E1
7.709732625E0,7.713609467E0,4.440366211E0,5.075794830E0,1.024599025E1
7.719673625E0,7.533234558E0,4.498894501E0,4.720134430E0,9.963400206E0
7.729614625E0,7.339387665E0,4.568499756E0,4.340374146E0,9.673502418E0
7.739555625E0,7.071295166E0,4.664300537E0,4.015998688E0,9.374815213E0
7.749496625E0,6.768325195E0,4.744982758E0,3.708687744E0,9.059771084E0
7.759437625E0,6.464756470E0,4.830155640E0,3.404520264E0,8.758666448E0
7.769378625E0,6.227350159E0,4.929698639E0,3.155587921E0,8.546318143E0
7.779320625E0,6.067931671E0,5.053491211E0,2.982248383E0,8.441052873E0
7.789261625E0,6.017636261E0,5.199886780E0,2.845133514E0,8.446629707E0
7.799202625E0,6.073021088E0,5.324876862E0,2.834505615E0,8.559808456E0
7.809143625E0,6.257886658E0,5.452112274E0,2.940335541E0,8.805239733E0
7.819084625E0,6.421496429E0,5.570965118E0,3.116519165E0,9.054499459E0
7.829025625E0,6.493496704E0,5.593717804E0,3.233575745E0,9.160305148E0
7.838966625E0,6.511459351E0,5.516927490E0,3.318000183E0,9.156676090E0
7.848908625E0,6.568041687E0,5.357808380E0,3.457659760E0,9.154271858E0
7.858849625E0,6.577472076E0,5.194198608E0,3.608845367E0,9.125053588E0
7.868790625E0,6.646628265E0,5.088218994E0,3.734883270E0,9.166078380E0
7.878731625E0,6.844516754E0,5.142106934E0,3.902085571E0,9.408238152E0
7.888672625E0,7.013665009E0,5.290149078E0,4.184398499E0,9.730691903E0
7.898613625E0,7.158863068E0,5.388793945E0,4.433480530E0,9.997208121E0
7.908554625E0,7.220534821E0,5.410349121E0,4.559219055E0,1.010912850E1
7.918495625E0,7.085216217E0,5.376070404E0,4.597239990E0,1.001184485E1
7.928437625E0,6.791526947E0,5.253026276E0,4.545896759E0,9.715158294E0
7.938378625E0,6.509513397E0,5.017715607E0,4.377197571E0,9.311879142E0
7.948319625E0,6.288273468E0,4.800666962E0,4.302802277E0,9.005714515E0
7.958260625E0,6.148763580E0,4.680766296E0,4.489913177E0,8.937347874E0
7.968201625E0,6.209836578E0,4.636757812E0,4.891827393E0,9.164691407E0
7.978142625E0,6.364015961E0,4.593048706E0,5.374723206E0,9.512331213E0
7.988083625E0,6.608457642E0,4.590204620E0,5.866600342E0,9.957845672E0
7.998024625E0,6.833140411E0,4.598587189E0,6.284980316E0,1.036049176E1
8.007966625E0,6.947352905E0,4.562063141E0,6.538103943E0,1.057473100E1
8.017907625E0,6.904541931E0,4.401447144E0,6.496939545E0,1.045254322E1
8.027848625E0,6.757697296E0,4.213438110E0,6.212381287E0,1.010015914E1
8.037789625E0,6.548133087E0,4.074976044E0,5.839207306E0,9.673666246E0
8.047730625E0,6.344406738E0,3.985312500E0,5.515430603E0,9.303450291E0
8.057671625E0,6.169420624E0,3.916605377E0,5.321583710E0,9.039955846E0
8.067612625E0,6.053262177E0,3.965553589E0,5.222639465E0,8.924324133E0
8.077554625E0,5.994733887E0,4.193080444E0,5.161566467E0,8.953241110E0
8.087495625E0,5.886808319E0,4.470753021E0,5.144052887E0,9.005743993E0
8.097436625E0,5.701643372E0,4.579876099E0,5.153333588E0,8.946555163E0
8.107377625E0,5.676495667E0,4.597988434E0,4.942871246E0,8.820208436E0
8.117318625E0,5.827531586E0,4.692891083E0,4.672383728E0,8.821253924E0
8.127259625E0,6.017785950E0,4.810097351E0,4.542603607E0,8.943491030E0
8.137200625E0,6.482719116E0,4.836442566E0,4.702321472E0,9.355674805E0
8.147141625E0,7.280260620E0,4.947511597E0,5.286107483E0,1.026757021E1
8.157083625E0,8.043972473E0,5.206024017E0,6.191125488E0,1.140781373E1
8.167024625E0,8.727900238E0,5.376070404E0,7.034771118E0,1.243247281E1
8.176965625E0,9.060658264E0,5.481600952E0,7.588769073E0,1.302815771E1
8.186906625E0,9.060059509E0,5.318290558E0,7.712861023E0,1.303292438E1
8.196847625E0,8.772058411E0,4.928351440E0,7.382797394E0,1.247971771E1
8.206788625E0,8.293353882E0,4.532125397E0,6.867568817E0,1.168261018E1
8.216729625E0,7.819738770E0,4.258494415E0,6.470893707E0,1.100706839E1
8.226671625E0,7.445516968E0,4.068539429E0,6.209237823E0,1.051396074E1
8.236612625E0,7.086713104E0,3.942501526E0,5.812113647E0,9.977248416E0
8.246553625E0,6.703659668E0,3.895199890E0,5.416636047E0,9.457884605E0
8.256494625E0,6.351142731E0,3.839515686E0,5.069956970E0,8.987956295E0
8.266435625E0,6.007307739E0,3.825894012E0,4.885839844E0,8.636934772E0
8.276376625E0,5.672304382E0,3.868854675E0,4.629872131E0,8.281231156E0
8.286317625E0,5.555696869E0,3.908821564E0,4.276906128E0,8.027239858E0
8.296258625E0,5.761219482E0,3.959715729E0,3.913312225E0,8.011554852E0
8.306200625E0,6.388864288E0,4.056264954E0,3.592678986E0,8.377243852E0
8.316141625E0,7.129973145E0,4.219275970E0,3.473227386E0,8.983435603E0
8.326082625E0,7.908653870E0,4.264332275E0,4.040697327E0,9.851830828E0
8.336023625E0,8.438551941E0,4.109554138E0,5.232369232E0,1.074594258E1
8.345964625E0,8.718170471E0,3.673211517E0,6.211632843E0,1.131739200E1
8.355905625E0,8.828191681E0,2.989882507E0,6.659202118E0,1.145518828E1
8.365846625E0,8.881331177E0,2.410736847E0,6.657705231E0,1.135846533E1
8.375787625E0,8.771010590E0,2.088457031E0,6.385571136E0,1.104842967E1
8.385729625E0,8.609945526E0,1.848356323E0,5.877228241E0,1.058722791E1
8.395670625E0,8.487350464E0,1.715582428E0,5.182073822E0,1.009119567E1
8.405611625E0,8.594826965E0,1.814975739E0,4.554878082E0,9.895054413E0
8.415552625E0,8.786578217E0,2.133663025E0,4.108955383E0,9.931766661E0
8.425493625E0,8.971443787E0,2.554138641E0,3.859274597E0,1.009477232E1
8.435434625E0,9.101373596E0,2.849923553E0,3.741768951E0,1.024489631E1
8.445375625E0,9.088799744E0,2.902464294E0,3.644171906E0,1.021325456E1
8.455317625E0,9.089398499E0,2.778821411E0,3.818409576E0,1.024301055E1
8.465258625E0,9.092092896E0,2.571801910E0,4.247716827E0,1.035970157E1
8.475199625E0,9.054820404E0,2.287393341E0,4.696184235E0,1.045352033E1
8.485140625E0,8.857830048E0,2.078278198E0,5.004243622E0,1.038377810E1
8.495081625E0,8.692274323E0,2.006577301E0,5.067412262E0,1.025966142E1
8.505022625E0,8.654253387E0,2.141746216E0,4.859943695E0,1.015392689E1
8.514962958E0,8.681496735E0,2.428100739E0,4.534071350E0,1.009068193E1
8.524903958E0,8.736133118E0,2.686912537E0,4.107308807E0,1.002045440E1
8.534845958E0,8.689729614E0,2.909349976E0,3.767216034E0,9.907958150E0
8.544786958E0,8.662785645E0,3.095263367E0,3.565884705E0,9.866105825E0
8.554727958E0,8.622968445E0,3.235222321E0,3.614383850E0,9.893736346E0
8.564668958E0,8.585246887E0,3.225492554E0,3.580703888E0,9.845390122E0
8.574609958E0,8.554860077E0,3.035537567E0,3.433410187E0,9.705072116E0
8.584550958E0,8.453969879E0,2.837200012E0,3.299738159E0,9.508290201E0
8.594491958E0,8.321794739E0,2.734663239E0,3.127895508E0,9.301310715E0
8.604432958E0,8.204438782E0,2.627486115E0,2.946173401E0,9.104748031E0
8.614374958E0,8.119565277E0,2.498753815E0,2.946622467E0,8.991868264E0
8.624315958E0,8.086783447E0,2.402953033E0,3.107537842E0,8.990386045E0
8.634256958E0,8.022566986E0,2.356399841E0,3.302432556E0,8.990009013E0
8.644197958E0,7.900420990E0,2.342329102E0,3.365750885E0,8.901204214E0
8.654138958E0,7.697742462E0,2.207908630E0,3.337310028E0,8.675698114E0
8.664079958E0,7.553741913E0,1.916764069E0,3.335513763E0,8.476948357E0
8.674020958E0,7.333549805E0,1.622176666E0,3.495680695E0,8.284454924E0
8.683961958E0,7.097490692E0,1.530567169E0,3.544179840E0,8.079493841E0
8.693903958E0,7.151378632E0,1.581461334E0,3.506458282E0,8.120251595E0
8.703844958E0,7.349865875E0,1.799258423E0,3.296744385E0,8.253870776E0
8.713785958E0,7.525301056E0,2.066003723E0,2.924917603E0,8.333886869E0
8.723726958E0,7.550149384E0,2.306703186E0,2.350262604E0,8.237072879E0
8.733667958E0,7.403304749E0,2.390079803E0,1.878892822E0,8.003226906E0
8.743608958E0,7.188800812E0,2.248923340E0,1.652264099E0,7.711451871E0
8.753549958E0,6.855294342E0,1.973346405E0,1.488205261E0,7.287243062E0
8.763490958E0,6.497388611E0,1.476080475E0,1.330583038E0,6.794506866E0
8.773432958E0,6.085594940E0,8.641529846E-1,1.256636810E0,6.273783725E0
8.783373958E0,5.981411591E0,3.385958862E-1,1.057850189E0,6.083664916E0
8.793314958E0,6.194268951E0,-1.032852173E-2,9.285191345E-1,6.263483240E0
8.803255958E0,6.595883789E0,-1.683998108E-1,1.172811127E0,6.701457110E0
8.813196958E0,7.229516144E0,-2.799179077E-2,1.418899384E0,7.367493649E0
8.823137958E0,7.615862732E0,1.040336609E-1,2.211052094E0,7.931011254E0
8.833078958E0,7.298372955E0,-6.526428223E-2,3.062481537E0,7.915131103E0
8.843019958E0,6.484066315E0,-1.353934479E0,3.577410736E0,7.528221710E0
8.852961958E0,6.904691620E0,-2.008972321E0,3.719315643E0,8.095927680E0
8.862902958E0,7.417375488E0,-2.054777069E0,3.558999023E0,8.479743038E0
8.872843958E0,7.090904388E0,-1.996847534E0,3.126697998E0,8.002784859E0
8.882784958E0,7.505542145E0,-2.492915955E0,2.216889954E0,8.213549410E0
8.892725958E0,9.238638153E0,-2.935994568E0,1.149609375E0,9.761869736E0
8.902666958E0,9.939031677E0,-2.136806488E0,8.316705322E-1,1.020009650E1
8.912607958E0,9.261989594E0,-8.717871094E-1,1.443448334E0,9.414244903E0
8.922548958E0,9.754914551E0,-4.276606750E-1,2.471360779E0,1.007218326E1
8.932490958E0,1.119911133E1,-8.039781189E-1,3.643872528E0,1.180441792E1
8.942431958E0,1.235710327E1,-7.491920471E-1,4.940775604E0,1.332931182E1
8.952372958E0,1.277263916E1,1.338217163E-1,8.157436523E0,1.515592260E1
8.962313958E0,1.243329483E1,9.771679688E-1,9.909692688E0,1.592933416E1
8.972254958E0,1.332005081E1,9.708810425E-1,8.241411896E0,1.569354114E1
8.982195958E0,1.334220474E1,5.915698242E-1,7.233557739E0,1.518844099E1
8.992136958E0,1.261726227E1,-1.190025330E-1,7.253466339E0,1.455411429E1
9.002077958E0,1.207793381E1,-4.128414917E-1,7.199279022E0,1.406685969E1
9.012019958E0,1.141930344E1,-2.447410583E-1,6.931635590E0,1.336068715E1
9.021960958E0,1.091679840E1,8.472381592E-2,6.955735474E0,1.294472562E1
9.031901958E0,1.032582733E1,7.087760925E-1,7.849526825E0,1.299000173E1
9.041842958E0,1.003588028E1,1.666484528E0,9.035360870E0,1.360638856E1
9.051783958E0,9.735455017E0,2.354902954E0,9.842183075E0,1.404255034E1
9.061724958E0,8.691226501E0,2.026785278E0,1.002644989E1,1.342292718E1
9.071665958E0,8.471184082E0,1.747316437E0,9.416019287E0,1.278575354E1
9.081606958E0,8.716673584E0,1.923350372E0,9.604477386E0,1.311204259E1
9.091548958E0,8.103398895E0,2.121987305E0,9.540859680E0,1.269629502E1
9.101489958E0,7.729177094E0,2.229463806E0,8.966204681E0,1.204589199E1
9.111430958E0,7.744894409E0,2.251767426E0,8.581953735E0,1.177725672E1
9.121371958E0,7.364984436E0,2.414928131E0,8.314310303E0,1.136673345E1
9.131312958E0,6.992558899E0,2.626587982E0,7.963439941E0,1.091838908E1
9.141253958E0,6.919361115E0,2.790646820E0,7.742499390E0,1.075228184E1
9.151194958E0,7.112908630E0,2.887196045E0,7.643704834E0,1.083307868E1
9.161135958E0,7.205416260E0,2.960244141E0,7.721842346E0,1.096849662E1
9.171077958E0,7.022646332E0,2.975362701E0,7.849227448E0,1.094443768E1
9.181018958E0,6.888076172E0,2.972817993E0,8.015082550E0,1.097837823E1
9.190959958E0,6.929989014E0,3.035238190E0,8.456813965E0,1.134703138E1
9.200900958E0,7.101981354E0,3.038681030E0,8.894054718E0,1.178031964E1
9.210841958E0,7.176226959E0,3.041525116E0,9.264534302E0,1.210705184E1
9.220782958E0,7.219187622E0,3.135679321E0,9.679920502E0,1.247597754E1
9.230723958E0,7.303612061E0,3.268453217E0,9.956844635E0,1.277357783E1
9.240664958E0,7.325765991E0,3.345093842E0,1.002495300E1,1.285908950E1
9.250606958E0,7.100035400E0,3.342100067E0,9.686207428E0,1.246606393E1
9.260547958E0,6.841822357E0,3.201692047E0,9.130413208E0,1.185013968E1
9.270488958E0,6.653963013E0,2.727927246E0,8.839717712E0,1.139549999E1
9.280429958E0,6.480473785E0,2.071542206E0,8.994795227E0,1.127803923E1
9.290370958E0,6.494694214E0,1.599274292E0,9.003477173E0,1.121611931E1
9.300311958E0,6.935677185E0,1.089135132E0,8.859177246E0,1.130375401E1
9.310252958E0,7.685018921E0,4.324507141E-1,8.625064087E0,1.156020155E1
9.320193958E0,6.407126312E0,1.604962463E0,8.352480927E0,1.064852618E1
9.330134958E0,5.225034485E0,2.832859039E0,8.097111969E0,1.004436648E1
9.340076958E0,4.844974823E0,2.964136047E0,7.810458069E0,9.657284235E0
9.350017958E0,5.273533630E0,2.245330811E0,7.396419067E0,9.357279648E0
9.359958958E0,7.603737946E0,1.651515656E0,6.267317047E0,9.991175991E0
9.369899958E0,8.173902283E0,1.648970947E0,6.063291321E0,1.030996049E1
9.379840958E0,4.246070251E0,2.045795746E0,6.686146088E0,8.180399888E0
9.389781958E0,2.251168671E0,1.724563751E0,7.869435425E0,8.364800919E0
9.399722958E0,2.983296204E0,1.531315613E-1,9.665550385E0,1.011663826E1
9.409663958E0,5.204676819E0,-6.647676086E-1,9.599238281E0,1.093965047E1
9.419605958E0,6.357130280E0,3.143463135E-2,9.307345276E0,1.127123638E1
9.429546958E0,5.599555664E0,1.114731903E0,9.968819733E0,1.148803803E1
9.439487958E0,5.346282349E0,1.065334625E0,1.093700638E1,1.222030201E1
9.449428958E0,6.153703308E0,5.099894714E-1,1.136406830E1,1.293329819E1
9.459369958E0,6.907086639E0,4.315525818E-1,1.152947433E1,1.344703915E1
9.469310958E0,7.149432678E0,7.969427490E-1,1.199710190E1,1.398856531E1
9.479251958E0,7.610773315E0,1.196761322E0,1.235381012E1,1.455928338E1
9.489192958E0,8.775351563E0,1.450334015E0,1.243374390E1,1.528751945E1
9.499134958E0,9.666298828E0,1.729054413E0,1.237356903E1,1.579658738E1
9.509075958E0,9.974807281E0,1.944755859E0,1.222582626E1,1.589810314E1
9.519017208E0,1.000235001E1,1.890867920E0,1.191387497E1,1.567044364E1
9.528958208E0,9.680668945E0,1.597478027E0,1.150896698E1,1.512361095E1
9.538899208E0,9.234446869E0,1.209185486E0,1.095167587E1,1.437624231E1
9.548840208E0,8.716374207E0,7.319778442E-1,9.934990082E0,1.323688025E1
9.558781208E0,8.168214111E0,3.740721130E-1,8.638536072E0,1.189470290E1
9.568722208E0,7.823331299E0,1.538800049E-1,7.300318909E0,1.070153484E1
9.578663208E0,7.603887634E0,-4.161346436E-2,6.330934753E0,9.894522408E0
9.588605208E0,7.432344360E0,6.047424316E-2,5.671256561E0,9.349147063E0
9.598546208E0,7.271129608E0,4.266128540E-1,4.938081207E0,8.799771038E0
9.608487208E0,7.080575867E0,6.728507996E-1,4.190685425E0,8.255248460E0
9.618428208E0,6.644083557E0,7.285350037E-1,3.581452332E0,7.582968440E0
9.628369208E0,6.174060974E0,5.364843750E-1,3.253334656E0,6.999359312E0
9.638310208E0,5.908962250E0,4.460723877E-2,3.315605164E0,6.775770235E0
9.648251208E0,5.656886444E0,8.517288208E-2,3.181783447E0,6.490867782E0
9.658192208E0,5.100194092E0,9.639953613E-2,2.796035614E0,5.817137423E0
9.668134208E0,4.931794281E0,2.381547546E-1,2.684966583E0,5.620352130E0
9.678075208E0,5.034031677E0,3.628454590E-1,2.438578949E0,5.605336658E0
9.688016208E0,4.823269958E0,4.490661621E-2,1.783541107E0,5.142661624E0
9.697957208E0,4.193379822E0,-9.047186279E-1,1.167422333E0,4.445877307E0
9.707898208E0,3.823498993E0,-1.080902252E0,1.000818787E0,4.097454389E0
9.717839208E0,3.672163696E0,-9.729766846E-1,9.243278503E-1,3.909712498E0
9.727780208E0,3.759282532E0,-8.342152405E-1,6.741979980E-1,3.909304690E0
9.737721208E0,3.739074554E0,-7.252418518E-1,4.041595459E-1,3.830143497E0
9.747662208E0,3.729344788E0,-8.354127502E-1,2.838098145E-1,3.832293702E0
9.757604208E0,3.820505219E0,-9.008267212E-1,2.204914856E-1,3.931458432E0
9.767545208E0,3.892206116E0,-9.782157898E-1,1.710942078E-1,4.016895294E0
9.777486208E0,3.922443237E0,-1.241218872E0,6.436614990E-2,4.114648009E0
9.787427208E0,3.880231018E0,-1.742526398E0,-8.008346558E-2,4.254292463E0
9.797368208E0,3.960314484E0,-2.358794861E0,-3.263214111E-1,4.621091826E0
9.807309208E0,4.169729004E0,-2.885399780E0,-7.806266785E-1,5.130453184E0
9.817250208E0,4.245172119E0,-3.463796997E0,-1.215472412E0,5.612196463E0
9.827191208E0,4.127965851E0,-4.221970367E0,-1.403182068E0,6.069106669E0
9.837133208E0,4.094585266E0,-5.421725464E0,-1.366807709E0,6.930288509E0
9.847074208E0,4.356540527E0,-6.738088074E0,-1.091230774E0,8.097657739E0
9.857015208E0,4.754862213E0,-7.768994293E0,-6.376739502E-1,9.130860587E0
9.866956208E0,5.119803314E0,-8.497229919E0,-1.664538574E-1,9.921845049E0
9.876897208E0,5.778733063E0,-9.127419434E0,3.065625000E-1,1.080729022E1
9.886838208E0,6.665489044E0,-9.727970581E0,8.098159790E-1,1.182023510E1
9.896779208E0,7.525301056E0,-9.911339264E0,1.455423431E0,1.252928806E1
9.906720208E0,8.558003540E0,-9.640552368E0,2.020648041E0,1.304847474E1
9.916661208E0,9.550140381E0,-9.185199280E0,2.323767700E0,1.345261920E1
9.926603208E0,1.028900391E1,-8.895401917E0,2.353406067E0,1.380327123E1
9.936544208E0,1.096514786E1,-8.906927948E0,2.242636414E0,1.430374955E1
9.946485208E0,1.159114609E1,-9.158404999E0,2.025438080E0,1.491085005E1
9.956426208E0,1.221100708E1,-9.484726410E0,1.777104492E0,1.556363805E1
9.966367208E0,1.281649796E1,-9.827962646E0,1.509910126E0,1.622132233E1
9.976308208E0,1.338531509E1,-1.019709503E1,1.190025330E0,1.686901205E1
9.986249208E0,1.383408188E1,-1.053823563E1,9.475296021E-1,1.741648770E1
9.996190208E0,1.433164719E1,-1.078372513E1,8.470884705E-1,1.795556731E1
1.000613221E1,1.494387405E1,-1.091844498E1,8.927435303E-1,1.852913391E1
1.001607321E1,1.554756866E1,-1.094583801E1,8.849597168E-1,1.903474231E1
1.002601421E1,1.593690903E1,-1.097966766E1,7.277865601E-1,1.936666839E1
1.003595521E1,1.605067245E1,-1.089509354E1,6.686595154E-1,1.941067374E1
1.004589621E1,1.598974915E1,-1.057595718E1,8.128097534E-1,1.918811111E1
1.005583721E1,1.570908279E1,-1.002914429E1,1.100361786E0,1.867002446E1
1.006577821E1,1.536958878E1,-9.399553528E0,1.505569153E0,1.807878879E1
1.007571921E1,1.516496429E1,-8.840765533E0,1.919308777E0,1.765839810E1
1.008566021E1,1.497755402E1,-8.273894348E0,2.296224976E0,1.726433031E1
1.009560221E1,1.472173599E1,-7.620054016E0,2.623145142E0,1.678319470E1
1.010554321E1,1.440244995E1,-6.941365356E0,2.850821686E0,1.624008319E1
1.011548421E1,1.402014496E1,-6.354735260E0,2.966381378E0,1.567630516E1
1.012542521E1,1.349548599E1,-5.915398865E0,2.925815735E0,1.502266566E1
1.013536621E1,1.285541702E1,-5.585335236E0,2.710563354E0,1.427602431E1
1.014530721E1,1.224079514E1,-5.306614838E0,2.374212799E0,1.355116648E1
1.015524821E1,1.170296356E1,-5.030588837E0,1.996248779E0,1.289384308E1
1.016518921E1,1.129491211E1,-4.711602173E0,1.585652618E0,1.234052385E1
1.017513021E1,1.100406693E1,-4.390070801E0,1.249152374E0,1.191312689E1
1.018507221E1,1.073357941E1,-4.071533203E0,9.752220154E-1,1.152120512E1
1.019501321E1,1.052596115E1,-3.800746307E0,8.229885864E-1,1.122135646E1
1.020495421E1,1.042162811E1,-3.588487701E0,7.586224365E-1,1.104821635E1
1.021489521E1,1.031924103E1,-3.423830109E0,7.396119690E-1,1.089753981E1
1.022483621E1,1.020323227E1,-3.303929443E0,7.132667542E-1,1.074851841E1
1.023477721E1,1.008467880E1,-3.154540100E0,6.602769470E-1,1.058715427E1
1.024471821E1,9.964628448E0,-2.958597565E0,5.766009521E-1,1.041055178E1
1.025465921E1,9.879156189E0,-2.741548920E0,4.068539429E-1,1.026057248E1
1.026460021E1,9.897717590E0,-2.531835022E0,2.456391907E-1,1.021936107E1
1.027454221E1,9.891131287E0,-2.374212799E0,1.095721436E-1,1.017267765E1
1.028448321E1,9.873617706E0,-2.212848358E0,6.391708374E-2,1.011875041E1
1.029442421E1,9.928403778E0,-2.044897614E0,1.739382935E-1,1.013829682E1
1.030436521E1,1.002031265E1,-1.903292084E0,3.826043701E-1,1.020664355E1
1.031430621E1,1.014335678E1,-1.909728699E0,7.179071045E-1,1.034650381E1
1.032424721E1,1.029663803E1,-2.018402710E0,9.705816650E-1,1.053739688E1
1.033418821E1,1.055065979E1,-2.264191589E0,1.099313965E0,1.084672655E1
1.034412921E1,1.072983719E1,-2.552941132E0,1.107696533E0,1.108485030E1
1.035407021E1,1.089299789E1,-2.804268494E0,1.094673615E0,1.130131122E1
1.036401221E1,1.110420868E1,-3.023263092E0,1.101409607E0,1.156099793E1
1.037395321E1,1.131362320E1,-3.217559052E0,1.132993927E0,1.181670138E1
1.038389421E1,1.166943329E1,-3.374881897E0,1.146615601E0,1.220164859E1
1.039383521E1,1.211415848E1,-3.624263306E0,1.084045715E0,1.269107069E1
1.040377621E1,1.255199799E1,-4.247267761E0,9.991722107E-1,1.328872763E1
1.041371721E1,1.292262726E1,-5.171595612E0,1.024020538E0,1.395665843E1
1.042365821E1,1.336690338E1,-6.058501282E0,1.197509766E0,1.472459077E1
1.043359921E1,1.370969055E1,-6.721772003E0,1.349443817E0,1.532836692E1
1.044354121E1,1.381522110E1,-7.077432404E0,1.387315063E0,1.558444823E1
1.045348221E1,1.374831024E1,-7.110663300E0,1.386416931E0,1.554026123E1
1.046342321E1,1.354398514E1,-6.866970062E0,1.540147247E0,1.526325210E1
1.047336421E1,1.309596680E1,-6.497687988E0,1.767075348E0,1.472572072E1
1.048330521E1,1.255993149E1,-6.233038330E0,1.913321228E0,1.415144671E1
1.049324621E1,1.211924789E1,-6.162534943E0,2.023043060E0,1.374575242E1
1.050318721E1,1.168814438E1,-6.203998718E0,2.108215942E0,1.339951095E1
1.051312833E1,1.122380997E1,-6.234834595E0,2.172731781E0,1.302182153E1
1.052306933E1,1.074330917E1,-6.192023621E0,2.163002014E0,1.258723267E1
1.053301133E1,1.036968613E1,-6.089337158E0,2.105970612E0,1.220842044E1
1.054295233E1,1.017778519E1,-6.030509491E0,2.114203491E0,1.201766252E1
1.055289333E1,9.990524597E0,-6.102659454E0,2.210303650E0,1.191379353E1
1.056283433E1,9.830657043E0,-6.239624634E0,2.427352295E0,1.189398052E1
1.057277533E1,9.687554626E0,-6.392007751E0,2.680326233E0,1.191178519E1
1.058271633E1,9.587861938E0,-6.616391144E0,2.922372894E0,1.201016202E1
1.059265733E1,9.480385437E0,-6.858138428E0,3.213068390E0,1.213406689E1
1.060259833E1,9.411678314E0,-7.128326569E0,3.451971588E0,1.230076568E1
1.061253933E1,9.382489014E0,-7.402406616E0,3.670517120E0,1.250197663E1
1.062248133E1,9.348509674E0,-7.727979584E0,3.874692535E0,1.273301001E1
1.063242233E1,9.259444885E0,-8.005801849E0,4.102219391E0,1.290962380E1
1.064236333E1,9.141939240E0,-8.115074615E0,4.258943481E0,1.294480933E1
1.065230433E1,9.041797485E0,-8.126600647E0,4.302502899E0,1.289601764E1
1.066224533E1,8.968749390E0,-8.055648193E0,4.262536011E0,1.278675669E1
1.067218633E1,8.907975769E0,-7.918084259E0,4.059109039E0,1.259064958E1
1.068212733E1,8.903634796E0,-7.792495422E0,3.711082764E0,1.240039648E1
1.069206833E1,8.882079620E0,-7.751031647E0,3.301235046E0,1.224205795E1
1.070200933E1,8.828640747E0,-7.720046082E0,2.898422699E0,1.208076418E1
1.071195133E1,8.712033234E0,-7.655380554E0,2.566562805E0,1.187819932E1
1.072189233E1,8.510103149E0,-7.551047516E0,2.332449646E0,1.161380625E1
1.073183333E1,8.236472168E0,-7.377258911E0,2.134411469E0,1.126140023E1
1.074177433E1,7.939789124E0,-7.135212250E0,1.989662476E0,1.085864918E1
1.075171533E1,7.649093628E0,-6.897207184E0,1.878144379E0,1.046936133E1
1.076165633E1,7.422913971E0,-6.663393402E0,1.812730408E0,1.013836550E1
1.077159733E1,7.291786652E0,-6.493496704E0,1.722318420E0,9.914738159E0
1.078153833E1,7.161108398E0,-6.401737518E0,1.592987366E0,9.736597224E0
1.079147933E1,7.083719330E0,-6.282136230E0,1.360371094E0,9.565297940E0
1.080142033E1,7.048392792E0,-6.221661987E0,9.993218994E-1,9.454499621E0
1.081136233E1,7.122339020E0,-6.144721985E0,4.567002869E-1,9.417743707E0
1.082130333E1,7.031777344E0,-5.939947815E0,-1.821711731E-1,9.206631251E0
1.083124433E1,6.730903015E0,-5.603896637E0,-7.366181946E-1,8.789272967E0
1.084118533E1,6.449787598E0,-5.298681335E0,-1.137484589E0,8.424348945E0
1.085112633E1,6.270310822E0,-5.122348022E0,-1.227896576E0,8.189198805E0
1.086106733E1,6.199058990E0,-5.091811523E0,-1.031954041E0,8.088251115E0
1.087100833E1,6.225254517E0,-5.106331329E0,-6.638694763E-1,8.078931620E0
1.088094933E1,6.381529541E0,-5.138065338E0,-1.514849854E-1,8.194301825E0
1.089089033E1,6.577322388E0,-5.156477051E0,4.064048767E-1,8.367531912E0
1.090083233E1,6.736142120E0,-5.144352264E0,9.343569946E-1,8.527191441E0
1.091077333E1,6.769672394E0,-5.156926117E0,1.327589264E0,8.613062437E0
1.092071433E1,6.692582703E0,-5.158872070E0,1.572330322E0,8.595164159E0
1.093065533E1,6.541247406E0,-5.159919891E0,1.649569702E0,8.493160255E0
1.094059633E1,6.336772614E0,-5.238805847E0,1.501826935E0,8.357945800E0
1.095053733E1,6.153852997E0,-5.386997681E0,1.288969574E0,8.279558761E0
1.096047833E1,6.135141907E0,-5.603896637E0,1.026116180E0,8.372367535E0
1.097041933E1,6.329587555E0,-5.999374237E0,7.614665222E-1,8.754199056E0
1.098036033E1,6.674320679E0,-6.543043671E0,5.177732849E-1,9.360879562E0
1.099030233E1,7.028484192E0,-7.197482758E0,2.113604736E-1,1.006220758E1
1.100024333E1,7.296876068E0,-7.901019745E0,-1.558259583E-1,1.075615150E1
1.101018433E1,7.071594543E0,-8.563991089E0,-4.195774841E-1,1.111419984E1
1.102012533E1,6.368506622E0,-9.002728729E0,-5.141807556E-1,1.103953726E1
1.103006633E1,5.597909088E0,-9.176068268E0,-4.698728943E-1,1.075907039E1
1.104000733E1,5.012027435E0,-9.238638153E0,-2.930905151E-1,1.051469239E1
1.104994833E1,4.615801392E0,-9.222621460E0,2.874023438E-2,1.031325337E1
1.105988933E1,4.485871582E0,-9.013057251E0,4.058061218E-1,1.007585845E1
1.106983033E1,4.810097351E0,-8.507259064E0,7.702981567E-1,9.803257242E0
1.107977133E1,5.769602051E0,-7.884104919E0,1.060843964E0,9.827146489E0
1.108971333E1,6.959328003E0,-7.276069336E0,1.115330658E0,1.013002437E1
1.109965433E1,8.014034729E0,-6.590195618E0,9.151968384E-1,1.041599809E1
1.110959533E1,8.679401093E0,-5.988596649E0,4.318519592E-1,1.055375712E1
1.111953633E1,8.934770050E0,-5.748346252E0,-1.984872437E-1,1.062605278E1
1.112947733E1,8.917256470E0,-5.875282288E0,-8.545729065E-1,1.071292209E1
1.113941833E1,8.792865143E0,-6.355932770E0,-1.491947479E0,1.095163303E1
1.114935933E1,8.794960785E0,-7.024442596E0,-2.005828857E0,1.143317447E1
1.115930033E1,8.864266663E0,-7.669600983E0,-2.324516144E0,1.194995305E1
1.116924133E1,9.031019897E0,-8.096962280E0,-2.561473389E0,1.239682477E1
1.117918333E1,9.221573639E0,-8.186775513E0,-2.838247833E0,1.265370951E1
1.118912433E1,9.525292053E0,-8.073910217E0,-3.106939087E0,1.286748947E1
1.119906533E1,9.946965179E0,-7.781717834E0,-3.407663727E0,1.308087997E1
1.120900633E1,1.013063324E1,-7.330256653E0,-3.623664551E0,1.301896068E1
1.121894733E1,1.020592667E1,-6.769373016E0,-3.733835449E0,1.280339320E1
1.122888833E1,1.020023849E1,-6.251150665E0,-3.758085022E0,1.253973497E1
1.123882933E1,1.010847931E1,-5.824837189E0,-3.665577393E0,1.222892227E1
1.124877033E1,1.003168900E1,-5.381159821E0,-3.402424622E0,1.188142072E1
1.125871133E1,9.986782379E0,-4.907844086E0,-3.121309204E0,1.155704664E1
1.126865233E1,9.879605255E0,-4.537065125E0,-2.800376587E0,1.122647180E1
1.127859433E1,9.773625641E0,-4.300556946E0,-2.485730896E0,1.096345777E1
1.128853533E1,9.649084625E0,-4.160747681E0,-2.248474274E0,1.074580346E1
1.129847633E1,9.549092560E0,-4.032015381E0,-2.132016449E0,1.058242935E1
1.130841733E1,9.507179718E0,-3.869752808E0,-2.066602478E0,1.047054434E1
1.131835833E1,9.576335907E0,-3.607647858E0,-2.082619171E0,1.044311424E1
1.132829933E1,9.537865906E0,-3.210673370E0,-2.171234894E0,1.029531789E1
1.133824033E1,9.255852356E0,-2.791994019E0,-2.315834198E0,9.941283693E0
1.134818133E1,8.913813629E0,-2.529290314E0,-2.358645172E0,9.561202328E0
1.135812233E1,8.627908173E0,-2.516117706E0,-2.227517853E0,9.259237740E0
1.136806433E1,8.372239838E0,-2.617157593E0,-1.866169281E0,8.968082379E0
1.137800533E1,8.159382477E0,-2.661016388E0,-1.345701599E0,8.687199975E0
1.138794633E1,7.948620758E0,-2.618205414E0,-8.144563293E-1,8.408264426E0
1.139788733E1,7.777376862E0,-2.560275879E0,-3.489244080E-1,8.195385999E0
1.140782833E1,7.623047791E0,-2.454895020E0,4.340972900E-2,8.008698495E0
1.141776933E1,7.427704010E0,-2.314786377E0,3.255729675E-1,7.786849208E0
1.142771033E1,7.242239685E0,-2.117496643E0,4.677772522E-1,7.559936722E0
1.143765133E1,7.100484467E0,-1.878892822E0,5.004093933E-1,7.361897001E0
1.144759233E1,7.043902130E0,-1.695075073E0,3.998185730E-1,7.256010723E0
1.145753333E1,6.904092865E0,-1.557511139E0,2.526745605E-1,7.082103054E0
1.146747533E1,6.767427063E0,-1.520388336E0,1.143621826E-1,6.937054739E0
1.147741633E1,6.725065155E0,-1.571132813E0,6.242019653E-2,6.906435834E0
1.148735733E1,6.740782471E0,-1.744472351E0,1.648072815E-1,6.964803913E0
1.149729833E1,6.720873871E0,-2.013912048E0,4.153862000E-1,7.028408996E0
1.150723933E1,6.739884338E0,-2.237397308E0,7.027885437E-1,7.136238459E0
1.151718021E1,6.974596252E0,-2.434687042E0,9.583071899E-1,7.449231272E0
1.152712121E1,7.240443420E0,-2.548749847E0,1.279838562E0,7.781910656E0
1.153706221E1,7.581434326E0,-2.546953583E0,1.491797791E0,8.135759316E0
1.154700321E1,7.951165466E0,-2.462529144E0,1.652563477E0,8.486226965E0
1.155694521E1,8.290509796E0,-2.393672333E0,1.764081573E0,8.807621910E0
1.156688621E1,8.655301208E0,-2.417173462E0,1.627565460E0,9.132685031E0
1.157682721E1,8.919501801E0,-2.488874359E0,1.454225922E0,9.373728232E0
1.158676821E1,9.137448578E0,-2.655777283E0,1.477727051E0,9.629631183E0
1.159670921E1,9.328601074E0,-2.943479004E0,1.676962738E0,9.924669802E0
1.160665021E1,9.681567078E0,-3.469934235E0,2.092348938E0,1.049528984E1
1.161659121E1,1.023915756E1,-4.253105621E0,2.727777557E0,1.141796941E1
1.162653221E1,1.067969147E1,-5.107229462E0,3.213667145E0,1.226650966E1
1.163647321E1,1.104538101E1,-6.068380737E0,3.718716888E0,1.313980752E1
1.164641421E1,1.122351059E1,-7.291038208E0,4.028722229E0,1.397701795E1
1.165635621E1,1.161135406E1,-8.863069153E0,4.102668457E0,1.517265390E1
1.166629721E1,1.216924393E1,-1.038375687E1,4.077520752E0,1.650875767E1
1.167623821E1,1.290211990E1,-1.156060959E1,3.707041168E0,1.771594046E1
1.168617921E1,1.347662521E1,-1.253418503E1,3.082988892E0,1.866092286E1
1.169612021E1,1.358035950E1,-1.336510712E1,2.505190430E0,1.921791434E1
1.170606121E1,1.339998459E1,-1.437550598E1,2.280657349E0,1.978424012E1
1.171600221E1,1.309057800E1,-1.560879135E1,2.471660156E0,2.052088458E1
1.172594321E1,1.255678802E1,-1.675106598E1,2.708318024E0,2.110938472E1
1.173588421E1,1.175116333E1,-1.751208344E1,2.732567596E0,2.126569612E1
1.174582521E1,1.080872314E1,-1.752959702E1,2.415077820E0,2.073518431E1
1.175576721E1,1.004620880E1,-1.685030960E1,1.719324646E0,1.969302725E1
1.176570821E1,9.540111237E0,-1.588466766E1,7.078779602E-1,1.854285524E1
1.177564921E1,8.958720245E0,-1.488444763E1,-3.043171692E-1,1.737521392E1
1.178559021E1,8.122409363E0,-1.380609009E1,-8.810678101E-1,1.604237943E1
1.179553121E1,7.128326569E0,-1.271590714E1,-1.057550812E0,1.461594156E1
1.180547221E1,6.142476654E0,-1.171074738E1,-1.022523651E0,1.326337733E1
1.181541321E1,5.299429779E0,-1.086620361E1,-8.831634521E-1,1.212181152E1
1.182535421E1,4.645739136E0,-1.018916153E1,-6.602769470E-1,1.121774801E1
1.183529521E1,3.933819580E0,-9.548643494E0,-3.788621521E-1,1.033416981E1
1.184523621E1,3.228037262E0,-8.864566040E0,-1.993853760E-1,9.436127923E0
1.185517821E1,2.640808411E0,-8.199798431E0,-3.270698547E-1,8.620762035E0
1.186511921E1,2.287093964E0,-7.548203430E0,-5.354365540E-1,7.905242952E0
1.187506021E1,1.938917999E0,-6.886878662E0,-8.253836060E-1,7.202066288E0
1.188500121E1,1.661395111E0,-6.323300629E0,-1.272354126E0,6.660574268E0
1.189494221E1,1.476679230E0,-5.865851898E0,-1.719324646E0,6.288471776E0
1.190488321E1,1.442550201E0,-5.532345428E0,-1.970352631E0,6.047320606E0
1.191482421E1,1.525926819E0,-5.295986938E0,-1.930236053E0,5.839669642E0
1.192476521E1,1.740131378E0,-5.228327637E0,-1.614243164E0,5.741885412E0
1.193470621E1,1.958976288E0,-5.187761993E0,-1.100810852E0,5.653516351E0
1.194464721E1,1.971400452E0,-5.086572418E0,-4.680766296E-1,5.475283960E0
1.195458921E1,1.852248230E0,-5.057532806E0,2.140548706E-2,5.386085758E0
1.196453021E1,1.819466400E0,-5.124892731E0,3.658392334E-1,5.450579953E0
1.197447121E1,1.794019318E0,-5.271587677E0,6.875202942E-1,5.610777674E0
1.198441221E1,1.902843018E0,-5.522016907E0,9.240284729E-1,5.913316403E0
1.199435321E1,2.291884003E0,-5.842500458E0,1.067879333E0,6.366153482E0
1.200429421E1,2.836301880E0,-6.153403931E0,1.229842529E0,6.886327100E0
1.201423521E1,3.529510345E0,-6.423741760E0,1.333277435E0,7.449800682E0
1.202417621E1,4.280498657E0,-6.686445465E0,1.324296112E0,8.048911846E0
1.203411721E1,5.019661560E0,-6.951843567E0,1.413360901E0,8.690380900E0
1.204405821E1,5.590724030E0,-7.228019257E0,1.493893433E0,9.259167087E0
1.205400021E1,5.983806610E0,-7.490573273E0,1.532213745E0,9.708877817E0
1.206394121E1,6.135890350E0,-7.717351685E0,1.674567719E0,1.000054221E1
1.207388221E1,6.095474396E0,-7.935448151E0,1.735790405E0,1.015574290E1
1.208382321E1,6.105353851E0,-8.118218079E0,1.603166199E0,1.028352820E1
1.209376421E1,6.202950897E0,-8.265212402E0,1.470841370E0,1.043808940E1
1.210370521E1,6.463409271E0,-8.373287659E0,1.252295837E0,1.065156564E1
1.211364621E1,7.087162170E0,-8.523275757E0,8.343649292E-1,1.111621618E1
1.212358721E1,7.799830170E0,-8.865913239E0,5.471122742E-1,1.182121398E1
1.213352821E1,8.668324127E0,-9.316326599E0,4.019142151E-1,1.273166601E1
1.214346921E1,9.707762604E0,-9.885742493E0,3.312611389E-1,1.385923134E1
1.215341121E1,1.065229843E1,-1.048449738E1,4.472698975E-1,1.495313337E1
1.216335221E1,1.142379410E1,-1.082952988E1,8.174501038E-1,1.576229722E1
1.217329321E1,1.198153427E1,-1.087428680E1,1.179247742E0,1.622337518E1
1.218323421E1,1.251831802E1,-1.064556244E1,1.300794983E0,1.648418495E1
1.219317521E1,1.336585556E1,-1.060799057E1,1.121916962E0,1.710070924E1
1.220311621E1,1.419932236E1,-1.079599960E1,7.526348877E-1,1.785331404E1
1.221305721E1,1.454809708E1,-1.088671097E1,2.694396973E-1,1.817251226E1
1.222299821E1,1.431533112E1,-1.067115921E1,-1.676513672E-1,1.785582400E1
1.223293921E1,1.398287247E1,-1.026595184E1,-2.218386841E-1,1.734819017E1
1.224288021E1,1.371627686E1,-9.604327698E0,5.987548828E-2,1.674463933E1
1.225282221E1,1.357137817E1,-8.583001556E0,3.460803223E-1,1.606144430E1
1.226276321E1,1.357616821E1,-7.318281555E0,4.818479919E-1,1.543054652E1
1.227270421E1,1.322844131E1,-5.882167969E0,3.216810608E-1,1.448085075E1
1.228264521E1,1.234752319E1,-4.527634735E0,-6.631210327E-2,1.315162357E1
1.229258621E1,1.117575989E1,-3.532204742E0,-6.735992432E-1,1.174000917E1
1.230252721E1,9.938133545E0,-2.931653595E0,-1.200054474E0,1.043078242E1
1.231246821E1,8.827293549E0,-2.681074677E0,-1.554517365E0,9.355522276E0
1.232240921E1,8.021070099E0,-2.682272186E0,-1.606309662E0,8.608854764E0
1.233235021E1,7.402705994E0,-2.804717560E0,-1.229992218E0,8.011203248E0
1.234229121E1,6.891219635E0,-2.785108337E0,-7.866142273E-1,7.474255712E0
1.235223321E1,6.450536041E0,-2.614612885E0,-4.478686523E-1,6.974682938E0
1.236217421E1,6.083499298E0,-2.315534821E0,-3.192860413E-1,6.517101257E0
1.237211521E1,5.943390656E0,-1.898502045E0,-4.189787292E-1,6.253298783E0
1.238205621E1,5.968089294E0,-1.517693939E0,-7.153623962E-1,6.199453853E0
1.239199721E1,6.082750854E0,-1.344504089E0,-1.060544586E0,6.319201217E0
1.240193821E1,6.201454010E0,-1.308429108E0,-1.199306030E0,6.450453745E0
1.241187921E1,6.334527283E0,-1.344953156E0,-1.185834045E0,6.583413801E0
1.242182021E1,6.496640167E0,-1.445094910E0,-9.361532593E-1,6.720938602E0
1.243176121E1,6.722221069E0,-1.553619232E0,-4.760101318E-1,6.915820593E0
1.244170221E1,7.116052094E0,-1.779649200E0,1.157093811E-1,7.336125499E0
1.245164421E1,7.407795410E0,-1.981579285E0,7.719447327E-1,7.707009016E0
1.246158521E1,7.320975952E0,-2.031874695E0,1.028361511E0,7.666989700E0
1.247152621E1,7.067253571E0,-2.254461823E0,9.174421692E-1,7.474648572E0
1.248146721E1,6.666087799E0,-2.759960632E0,7.566764832E-1,7.254424067E0
1.249140821E1,6.098468170E0,-3.450474701E0,3.610491943E-1,7.016227348E0
1.250134921E1,5.490133209E0,-4.352798309E0,1.841171265E-2,7.006336758E0
1.251129021E1,4.708309021E0,-5.271437988E0,-1.556762695E-1,7.069686514E0
1.252123133E1,4.301305389E0,-6.114933929E0,-3.474275208E-1,7.484273572E0
1.253117233E1,4.801116028E0,-6.483168182E0,-3.782633972E-1,8.076216193E0
1.254111333E1,5.871989136E0,-6.293512573E0,-2.200424194E-1,8.610283130E0
1.255105433E1,6.967261505E0,-5.833219757E0,2.616558838E-1,9.090525255E0
1.256099633E1,8.136779480E0,-5.606291656E0,7.852670288E-1,9.912332256E0
1.257093733E1,9.388775940E0,-5.901777191E0,1.097667389E0,1.114383064E1
1.258087833E1,1.063553329E1,-6.754104767E0,1.343456268E0,1.267033442E1
1.259081933E1,1.169353317E1,-7.907606049E0,1.489851837E0,1.419466836E1
1.260076033E1,1.270408173E1,-9.147477722E0,1.310674438E0,1.570948467E1
1.261070133E1,1.340776840E1,-1.052805679E1,1.012045441E0,1.707725005E1
1.262064233E1,1.390443558E1,-1.185444855E1,8.116122437E-1,1.828988774E1
1.263058333E1,1.436667435E1,-1.304417450E1,6.592291260E-1,1.941613770E1
1.264052433E1,1.463551529E1,-1.412881897E1,6.515950012E-1,2.035304423E1
1.265046533E1,1.463791031E1,-1.503832764E1,7.054829407E-1,2.099803378E1
1.266040733E1,1.446666641E1,-1.575054657E1,7.286846924E-1,2.139848443E1
1.267034833E1,1.388946671E1,-1.615829865E1,7.231462097E-1,2.131972891E1
1.268028933E1,1.297127609E1,-1.618105133E1,6.756948853E-1,2.074938527E1
1.269023033E1,1.202868622E1,-1.579006439E1,6.533912659E-1,1.986057265E1
1.270017133E1,1.116019226E1,-1.502335876E1,6.414161682E-1,1.872598768E1
1.271011233E1,1.040546173E1,-1.403421570E1,6.239025879E-1,1.748205075E1
1.272005333E1,9.704319763E0,-1.288520508E1,5.457650757E-1,1.614001832E1
1.272999433E1,8.821605377E0,-1.176777878E1,4.574487305E-1,1.471429910E1
1.273993533E1,7.923023987E0,-1.069391190E1,3.805087280E-1,1.331461031E1
1.274987633E1,6.841822357E0,-9.751322021E0,2.865042114E-1,1.191557380E1
1.275981733E1,5.730533295E0,-9.169481964E0,2.252815247E-1,1.081522830E1
1.276975933E1,4.725972290E0,-8.940458221E0,2.398013306E-1,1.011553815E1
1.277970033E1,3.834575958E0,-8.809779968E0,3.529660034E-1,9.614612882E0
1.278964133E1,3.092119904E0,-8.409961395E0,5.692662048E-1,8.978458675E0
1.279958233E1,2.149230652E0,-7.875872040E0,6.749464417E-1,8.191709558E0
1.280952333E1,1.120270386E0,-7.461383972E0,5.619314575E-1,7.565911940E0
1.281946433E1,2.680924988E-1,-7.157216492E0,3.733236694E-1,7.171958732E0
1.282940533E1,-3.115022278E-1,-6.872209167E0,2.722837830E-1,6.884651839E0
1.283934633E1,-6.297404480E-1,-6.638096008E0,1.451980591E-1,6.669480799E0
1.284928733E1,-8.488847351E-1,-6.437812500E0,-1.152603149E-2,6.493548177E0
1.285922833E1,-1.102607117E0,-6.174659729E0,-1.591191101E-1,6.274351290E0
1.286916933E1,-1.286275177E0,-5.880671082E0,-2.269281006E-1,6.023976474E0
1.287911133E1,-1.237776031E0,-5.669460297E0,-1.597178650E-1,5.805202783E0
1.288905233E1,-8.089178467E-1,-5.608836365E0,6.676116943E-2,5.667261288E0
1.289899333E1,-1.094224548E-1,-5.535189514E0,3.784130859E-1,5.549188472E0
1.290893433E1,6.950047302E-1,-5.407954102E0,6.915618896E-1,5.496112898E0
1.291887533E1,1.444196777E0,-5.247338104E0,8.454418945E-1,5.507724894E0
1.292881633E1,2.119592285E0,-5.204976196E0,8.054750061E-1,5.677432399E0
1.293875733E1,2.810256042E0,-5.327271881E0,6.629713440E-1,6.059446817E0
1.294869833E1,3.600013733E0,-5.574557648E0,4.673281860E-1,6.652382091E0
1.295863933E1,4.331093445E0,-5.897136841E0,2.817141724E-1,7.322155162E0
1.296858033E1,4.922064514E0,-6.153852997E0,1.571731567E-1,7.881708520E0
1.297852233E1,5.345084839E0,-6.234385529E0,1.047821045E-1,8.212702000E0
1.298846333E1,5.609285431E0,-6.238127747E0,-2.754272461E-2,8.389224006E0
1.299840433E1,6.073619843E0,-6.487359467E0,-1.056802368E-1,8.887398897E0
1.300834533E1,6.755751343E0,-7.148235168E0,3.891906738E-2,9.835596419E0
1.301828633E1,7.773484955E0,-8.148455200E0,2.769241333E-1,1.126503784E1
1.302822733E1,9.039402466E0,-9.449100494E0,6.015989685E-1,1.309038649E1
1.303816833E1,1.006626709E1,-1.064750839E1,1.053808594E0,1.469046223E1
1.304810933E1,1.090377548E1,-1.143921204E1,1.417402496E0,1.586684977E1
1.305805033E1,1.165910477E1,-1.184666473E1,1.754800873E0,1.671399161E1
1.306799133E1,1.234123627E1,-1.209005859E1,1.996847534E0,1.739146427E1
1.307793233E1,1.318772598E1,-1.235276230E1,2.182461548E0,1.820082392E1
1.308787433E1,1.433823349E1,-1.288325912E1,2.271226959E0,1.940932191E1
1.309781533E1,1.549323166E1,-1.361388977E1,2.177521820E0,2.073933035E1
1.310775633E1,1.607162888E1,-1.412118484E1,2.272424469E0,2.151439121E1
1.311769733E1,1.618658981E1,-1.412013702E1,2.702779541E0,2.164922577E1
1.312763833E1,1.597088837E1,-1.364906662E1,2.968177643E0,2.121736019E1
1.313757933E1,1.543515244E1,-1.276680130E1,2.762205963E0,2.022040870E1
1.314752033E1,1.459884155E1,-1.152333710E1,2.063309326E0,1.871284901E1
1.315746133E1,1.359143646E1,-1.002540207E1,9.798623657E-1,1.691732727E1
1.316740233E1,1.278970367E1,-8.705446930E0,-2.333647156E-1,1.547306645E1
1.317734333E1,1.229288681E1,-7.664661255E0,-1.238823853E0,1.453949046E1
1.318728433E1,1.177062286E1,-6.860832825E0,-1.903292084E0,1.375649339E1
1.319722633E1,1.118608841E1,-6.138285370E0,-2.236798553E0,1.295416493E1
1.320716733E1,1.060409866E1,-5.360353088E0,-2.292482758E0,1.210106487E1
1.321710833E1,1.013647110E1,-4.682263184E0,-2.197430420E0,1.137982141E1
1.322704933E1,9.901759186E0,-4.172573090E0,-2.110760651E0,1.095036582E1
1.323699033E1,9.645342407E0,-3.702101440E0,-2.232008514E0,1.056977044E1
1.324693133E1,9.279503174E0,-3.209775238E0,-2.493814087E0,1.013069321E1
1.325687233E1,8.854985962E0,-2.636317749E0,-2.717149658E0,9.630360841E0
1.326681333E1,8.483009491E0,-1.995799713E0,-2.858156433E0,9.171353483E0
1.327675433E1,8.145461426E0,-1.333427124E0,-2.988535309E0,8.778263668E0
1.328669533E1,7.885751495E0,-6.080355835E-1,-2.967129822E0,8.447404530E0
1.329663633E1,7.547904053E0,1.914518738E-1,-2.844235382E0,8.068282613E0
1.330657833E1,7.198380890E0,7.479945374E-1,-2.738255768E0,7.737843880E0
1.331651933E1,7.061415710E0,9.677375793E-1,-2.634222107E0,7.598633691E0
1.332646033E1,7.014563141E0,1.014141083E0,-2.510130157E0,7.518865047E0
1.333640133E1,6.864275665E0,1.054557037E0,-2.343676300E0,7.329610464E0
1.334634233E1,6.715185699E0,1.014590149E0,-2.144440613E0,7.121919523E0
1.335628333E1,6.776707764E0,7.544311523E-1,-1.872306519E0,7.070959353E0
1.336622433E1,7.087012482E0,2.595602417E-1,-1.629960480E0,7.276667410E0
1.337616533E1,7.454797668E0,-3.005749512E-1,-1.483415222E0,7.606896496E0
1.338610633E1,7.828869781E0,-7.144642639E-1,-1.486408997E0,8.000692029E0
1.339604733E1,8.199948120E0,-1.035995636E0,-1.532513123E0,8.406011694E0
1.340598833E1,8.661887512E0,-1.387764130E0,-1.601819000E0,8.917399210E0
1.341593033E1,9.013656006E0,-1.879192200E0,-1.633403320E0,9.351222611E0
1.342587133E1,9.354347534E0,-2.437082062E0,-1.583107910E0,9.795377350E0
1.343581233E1,9.659712524E0,-3.025358734E0,-1.472487946E0,1.022893261E1
1.344575333E1,9.854008484E0,-3.633394318E0,-1.347348175E0,1.058859691E1
1.345569433E1,1.004920258E1,-4.172124023E0,-1.251098328E0,1.095254940E1
1.346563533E1,1.008303223E1,-4.695136414E0,-1.020727386E0,1.116932089E1
1.347557633E1,1.008572662E1,-5.059179382E0,-8.830137634E-1,1.131798970E1
1.348551733E1,1.017613861E1,-5.330714722E0,-8.355624390E-1,1.151818046E1
1.349545833E1,1.029798523E1,-5.641019440E0,-8.303233337E-1,1.177111027E1
1.350539933E1,1.078162949E1,-6.119574280E0,-8.053253174E-1,1.242341630E1
1.351534046E1,1.134565659E1,-6.731801147E0,-7.313790894E-1,1.321272059E1
1.352528246E1,1.186971680E1,-7.496860199E0,-5.945635986E-1,1.405156915E1
1.353522346E1,1.235381012E1,-8.468789062E0,-2.883004761E-1,1.498065852E1
1.354516446E1,1.287816971E1,-9.372010803E0,1.945953369E-3,1.592739292E1
1.355510546E1,1.362811020E1,-1.024559418E1,3.442840576E-3,1.704985629E1
1.356504646E1,1.458671677E1,-1.141047180E1,-1.995350647E-1,1.852055580E1
1.357498746E1,1.557526108E1,-1.287816971E1,-4.987628174E-1,2.021595353E1
1.358492846E1,1.614707199E1,-1.421249496E1,-6.560856628E-1,2.152099894E1
1.359486946E1,1.625589569E1,-1.512394958E1,-5.715115356E-1,2.221068709E1
1.360481046E1,1.621518036E1,-1.567540283E1,-3.308120728E-1,2.255570359E1
1.361475146E1,1.585802307E1,-1.588017700E1,6.735992432E-3,2.244230297E1
1.362469246E1,1.520373367E1,-1.587448883E1,3.423381042E-1,2.198340530E1
1.363463446E1,1.433479065E1,-1.571746536E1,6.333329773E-1,2.128205937E1
1.364457546E1,1.343037140E1,-1.528232025E1,1.077010345E0,2.037361380E1
1.365451646E1,1.247281265E1,-1.446067886E1,1.688638458E0,1.917117077E1
1.366445746E1,1.144624741E1,-1.336765182E1,2.290087738E0,1.774697712E1
1.367439846E1,1.039767792E1,-1.209544739E1,2.728076935E0,1.618190215E1
1.368433946E1,9.667196960E0,-1.138756943E1,2.871628418E0,1.521110398E1
1.369428046E1,8.695417786E0,-1.077249847E1,2.759661255E0,1.411639983E1
1.370422146E1,7.475604401E0,-9.856702881E0,2.513722687E0,1.262371002E1
1.371416246E1,6.195915527E0,-8.945397949E0,2.220033417E0,1.110576706E1
1.372410346E1,4.962630157E0,-8.049660645E0,1.972298584E0,9.659953223E0
1.373404446E1,3.860322418E0,-7.268884277E0,1.666484528E0,8.397376882E0
1.374398646E1,2.937790833E0,-6.663094025E0,1.196611633E0,7.379655572E0
1.375392746E1,2.072739716E0,-6.149661713E0,5.845344543E-1,6.515847576E0
1.376386846E1,1.306034088E0,-5.772146759E0,7.708969116E-2,5.918559459E0
1.377380946E1,6.704557800E-1,-5.473517761E0,-2.294728088E-1,5.519199707E0
1.378375046E1,1.811233521E-1,-5.237308960E0,-2.814147949E-1,5.247990577E0
1.379369146E1,-1.049317932E-1,-5.026696930E0,-1.285826111E-1,5.029435972E0
1.380363246E1,-1.791773987E-1,-4.790637817E0,6.301895142E-2,4.794401592E0
1.381357346E1,-2.844085693E-2,-4.530329132E0,1.438508606E-1,4.532701622E0
1.382351446E1,1.091230774E-1,-4.339176636E0,9.310638428E-2,4.341547019E0
1.383345546E1,2.100132751E-1,-4.268523560E0,-6.436614990E-2,4.274171493E0
1.384339646E1,4.845423889E-1,-4.268673248E0,-2.456391907E-1,4.303102513E0
1.385333746E1,8.993298340E-1,-4.257296906E0,-3.951782227E-1,4.369157461E0
1.386327946E1,1.323697357E0,-4.244573364E0,-5.306465149E-1,4.477740888E0
1.387322046E1,1.683848419E0,-4.308640137E0,-7.081773376E-1,4.679876117E0
1.388316146E1,1.974244537E0,-4.391567688E0,-9.506730652E-1,4.907880146E0
1.389310246E1,2.216740265E0,-4.472249908E0,-1.170565796E0,5.126907540E0
1.390304346E1,2.344574432E0,-4.544549561E0,-1.303489380E0,5.277219395E0
1.391298446E1,2.469265137E0,-4.575086060E0,-1.465751953E0,5.401584171E0
1.392292546E1,2.640509033E0,-4.707111511E0,-1.632804565E0,5.638726583E0
1.393286646E1,2.976709900E0,-4.977748718E0,-1.672172699E0,6.036136651E0
1.394280746E1,3.221151581E0,-5.336702271E0,-1.525777130E0,6.417492071E0
1.395274846E1,3.386557617E0,-5.588329010E0,-1.205143890E0,6.644589183E0
1.396268946E1,3.610192566E0,-5.763315125E0,-7.888595581E-1,6.846283005E0
1.397263146E1,3.989803162E0,-6.081403656E0,-5.975573730E-1,7.297881508E0
1.398257246E1,4.490661621E0,-6.533164215E0,-4.302053833E-1,7.939354705E0
1.399251346E1,5.282365265E0,-7.143145752E0,-1.320254517E-1,8.885119287E0
1.400245446E1,6.634653168E0,-8.101452942E0,3.098556519E-2,1.047153869E1
1.401239546E1,8.265811157E0,-9.523196411E0,1.447489929E-1,1.261094193E1
1.402233646E1,9.763895874E0,-1.134176468E1,6.387217712E-1,1.497922742E1
1.403227746E1,1.090587112E1,-1.339414673E1,1.470841370E0,1.733506752E1
1.404221846E1,1.140628052E1,-1.473460922E1,2.417772217E0,1.878982615E1
1.405215946E1,1.191567123E1,-1.510029877E1,3.229234772E0,1.950461999E1
1.406210046E1,1.290705963E1,-1.506931320E1,3.754941559E0,2.019346367E1
1.407204146E1,1.409903091E1,-1.490495499E1,4.243824921E0,2.095114331E1
1.408198246E1,1.539593399E1,-1.423315201E1,4.741839294E0,2.149656808E1
1.409192446E1,1.627325958E1,-1.294777496E1,5.118156738E0,2.141633447E1
1.410186546E1,1.674882065E1,-1.135134476E1,5.089266815E0,2.086328492E1
1.411180646E1,1.688369019E1,-9.796827393E0,4.572092285E0,2.004846251E1
1.412174746E1,1.662278275E1,-8.494236145E0,3.850892029E0,1.906038623E1
1.413168846E1,1.607043137E1,-7.665858765E0,2.939736786E0,1.804622418E1
1.414162946E1,1.524804153E1,-7.432643738E0,1.867217102E0,1.706556367E1
1.415157046E1,1.406460251E1,-7.741451569E0,8.461903381E-1,1.607666490E1
1.416151146E1,1.302516403E1,-8.240813141E0,-2.574645996E-2,1.541319442E1
1.417145246E1,1.229153961E1,-8.449329529E0,-5.441184998E-1,1.492545411E1
1.418139346E1,1.157483002E1,-8.213569794E0,-7.607180786E-1,1.421330752E1
1.419133446E1,1.094688583E1,-7.754474487E0,-9.777667236E-1,1.345073276E1
1.420127546E1,1.050485504E1,-7.122488708E0,-1.044677582E0,1.273472324E1
1.421121746E1,1.020113663E1,-6.286177826E0,-1.022673340E0,1.202601683E1
1.422115846E1,1.003872437E1,-5.423821106E0,-8.273295593E-1,1.144020526E1
1.423109946E1,9.997859344E0,-4.767735443E0,-4.469705200E-1,1.108549843E1
1.424104046E1,9.886191559E0,-4.261637878E0,-3.173400879E-2,1.076565595E1
1.425098146E1,9.671537933E0,-3.887715454E0,3.134481812E-1,1.042838565E1
1.426092246E1,9.302854614E0,-3.638633423E0,6.291416931E-1,1.000892484E1
1.427086346E1,8.916208649E0,-3.467090149E0,8.822653198E-1,9.607178715E0
1.428080446E1,8.692124634E0,-3.444786530E0,1.034648438E0,9.406916725E0
1.429074546E1,8.335416412E0,-3.465293884E0,1.043779449E0,9.087183503E0
1.430068646E1,7.958200836E0,-3.365152130E0,1.004111938E0,8.698588977E0
1.431062746E1,7.672594757E0,-3.135679321E0,9.451345825E-1,8.342330279E0
1.432056946E1,7.495063934E0,-2.924019470E0,6.987469482E-1,8.075526022E0
1.433051046E1,7.408094788E0,-2.752625885E0,4.303550720E-1,7.914671385E0
1.434045146E1,7.219786377E0,-2.580334167E0,1.622625732E-1,7.668752760E0
1.435039246E1,7.004084930E0,-2.460134125E0,-1.360670471E-1,7.424821874E0
1.436033346E1,6.843169556E0,-2.485431519E0,-3.767665100E-1,7.290287539E0
1.437027446E1,6.697821808E0,-2.584525452E0,-5.842350769E-1,7.202910482E0
1.438021546E1,6.598129120E0,-2.652933197E0,-7.867639160E-1,7.154883639E0
1.439015646E1,6.529871063E0,-2.709814911E0,-9.062155151E-1,7.127660171E0
1.440009746E1,6.602919159E0,-2.735411682E0,-9.630972290E-1,7.211697079E0
1.441003846E1,6.900200958E0,-2.820734253E0,-1.108744354E0,7.536486518E0
1.441997946E1,7.451953583E0,-3.026556244E0,-1.336420898E0,8.153384311E0
1.442992046E1,7.833210754E0,-3.287763062E0,-1.421294403E0,8.613283605E0
1.443986246E1,8.020920410E0,-3.654949493E0,-1.576521606E0,8.954286147E0
1.444980346E1,8.063881073E0,-4.121978302E0,-1.607956238E0,9.197956640E0
1.445974446E1,8.047115936E0,-4.653373260E0,-1.615440674E0,9.435020199E0
1.446968546E1,8.166417847E0,-5.340893555E0,-1.629212036E0,9.892919502E0
1.447962646E1,8.480764160E0,-6.147416382E0,-1.497635651E0,1.058097356E1
1.448956746E1,8.822952576E0,-6.766828308E0,-1.056652679E0,1.116919748E1
1.449950846E1,8.858129425E0,-7.075935516E0,-3.629951477E-1,1.134315149E1
1.450944946E1,8.688831482E0,-7.040758667E0,3.487747192E-1,1.118882116E1
1.451939050E1,8.458759918E0,-6.969806213E0,8.647517395E-1,1.099439010E1
1.452933150E1,8.365952911E0,-7.227719879E0,1.311722260E0,1.113327077E1
1.453927250E1,8.555758209E0,-7.949818268E0,1.567540283E0,1.178379360E1
1.454921350E1,8.664432220E0,-9.133556671E0,1.499282227E0,1.267841040E1
1.455915550E1,8.417445831E0,-1.023751099E1,1.277293854E0,1.331508562E1
1.456909650E1,7.990683289E0,-1.129685806E1,1.007704468E0,1.387391400E1
1.457903750E1,7.052733765E0,-1.206850342E1,6.259982300E-1,1.399220147E1
1.458897850E1,6.640940094E0,-1.259121643E1,-1.242416382E-2,1.423520182E1
1.459891950E1,6.824608154E0,-1.335358109E1,-8.536747742E-1,1.502072451E1
1.460886050E1,6.700965271E0,-1.420560928E1,-1.663341064E0,1.579458686E1
1.461880150E1,6.218518524E0,-1.507979141E1,-2.421364746E0,1.649039384E1
1.462874250E1,5.835764465E0,-1.623044861E1,-3.097658386E0,1.752367246E1
1.463868350E1,5.577850800E0,-1.761432083E1,-3.553909607E0,1.881507352E1
1.464862450E1,5.167554016E0,-1.837863144E1,-3.340303802E0,1.938131413E1
1.465856550E1,4.792583771E0,-1.825723389E1,-2.547103271E0,1.904686808E1
1.466850650E1,4.788392487E0,-1.731554214E1,-1.401385803E0,1.802000512E1
1.467844750E1,5.192851410E0,-1.576012665E1,-2.856060791E-1,1.659604979E1
1.468838950E1,5.597759399E0,-1.418375473E1,5.321434021E-1,1.525768610E1
1.469833050E1,5.836961975E0,-1.287607407E1,8.991801453E-1,1.416587214E1
1.470827150E1,5.857469330E0,-1.185534668E1,1.003962250E0,1.326149057E1
1.471821250E1,5.646408234E0,-1.111199249E1,9.500743103E-1,1.250043776E1
1.472815350E1,5.837560730E0,-1.065005310E1,7.771838379E-1,1.216982995E1
1.473809450E1,6.234235840E0,-1.051608170E1,5.786965942E-1,1.223881369E1
1.474803550E1,6.041885834E0,-1.033450928E1,6.062393188E-2,1.197122140E1
1.475797650E1,5.241799622E0,-9.920470276E0,-6.747967529E-1,1.124044236E1
1.476791750E1,4.283941498E0,-9.367520142E0,-1.361718292E0,1.039022931E1
1.477785850E1,3.665278015E0,-8.752598877E0,-1.957629089E0,9.688888568E0
1.478779950E1,3.525319061E0,-8.246052246E0,-2.226470032E0,9.240260869E0
1.479774050E1,3.554807739E0,-7.648045807E0,-1.957778778E0,8.658069096E0
1.480768250E1,3.690575409E0,-6.955136719E0,-1.501826935E0,8.015594661E0
1.481762350E1,4.025578766E0,-6.434968414E0,-9.563612366E-1,7.650407160E0
1.482756450E1,4.451443176E0,-6.127058716E0,-3.689826965E-1,7.582370545E0
1.483750550E1,4.807852020E0,-5.851781158E0,8.517288208E-2,7.574037113E0
1.484744650E1,5.003644867E0,-5.503455505E0,4.330494690E-1,7.450638650E0
1.485738750E1,4.897365875E0,-5.147495728E0,6.715036011E-1,7.136653408E0
1.486732850E1,4.653822327E0,-4.968468018E0,7.658074951E-1,6.850561861E0
1.487726950E1,4.294569397E0,-5.053640900E0,6.978488159E-1,6.668553488E0
1.488721050E1,4.122876434E0,-5.400020599E0,5.246589661E-1,6.814220395E0
1.489715150E1,4.045637054E0,-5.716462555E0,4.290078735E-1,7.016350267E0
1.490709250E1,3.982618103E0,-5.778134308E0,3.673361206E-1,7.027305235E0
1.491703350E1,3.841012573E0,-5.621410217E0,1.939965820E-1,6.811113352E0
1.492697550E1,3.885470123E0,-5.385500793E0,-9.580078125E-2,6.641511474E0
1.493691650E1,3.982169037E0,-5.145998840E0,-3.409909058E-1,6.515769264E0
1.494685750E1,3.955374756E0,-4.940476227E0,-3.841012573E-1,6.340412335E0
1.495679850E1,3.948040009E0,-4.909939728E0,-3.168910217E-1,6.308323704E0
1.496673950E1,4.055217133E0,-5.005890198E0,-1.881587219E-1,6.445085443E0
1.497668050E1,4.187541962E0,-5.123545532E0,-4.400848389E-2,6.617262519E0
1.498662150E1,4.174668732E0,-5.192851410E0,5.613327026E-2,6.663086051E0
1.499656250E1,3.941304016E0,-5.260959778E0,1.633103943E-1,6.575579474E0
1.500650350E1,3.697012024E0,-5.201383667E0,3.129991150E-1,6.389073360E0
1.501644450E1,3.478167114E0,-5.051096191E0,3.378474426E-1,6.142097370E0
1.502638550E1,3.387904816E0,-5.014721832E0,3.091072083E-1,6.059775686E0
1.503632650E1,3.331472168E0,-5.063370667E0,1.965412903E-1,6.064244206E0
1.504626750E1,3.311713257E0,-5.191803589E0,1.227447510E-2,6.158118208E0
1.505620950E1,3.404819641E0,-5.379213867E0,-8.442443848E-2,6.366778314E0
1.506615050E1,3.515589294E0,-5.665418701E0,-1.047821045E-2,6.667566793E0
1.507609150E1,3.701203308E0,-5.887856140E0,2.053729248E-1,6.957581037E0
1.508603250E1,3.891607361E0,-6.022875366E0,5.474116516E-1,7.191612826E0
1.509597350E1,3.981420593E0,-6.144871674E0,9.020242310E-1,7.377316961E0
1.510591450E1,4.048032074E0,-6.281687164E0,1.221909027E0,7.572266436E0
1.511585550E1,4.254452820E0,-6.292165375E0,1.613794098E0,7.765052820E0
1.512579650E1,4.679868164E0,-6.203699341E0,1.900148621E0,7.999851019E0
1.513573750E1,5.161865845E0,-6.179749146E0,1.978735199E0,8.291534930E0
1.514567850E1,5.683830414E0,-6.270759888E0,2.033371582E0,8.704191963E0
1.515561950E1,6.405030670E0,-6.477629700E0,2.026934967E0,9.332339994E0
1.516556050E1,7.520511017E0,-6.755601654E0,1.926044769E0,1.029105865E1
1.517550150E1,8.565487976E0,-7.108268280E0,1.719474335E0,1.126284397E1
1.518544350E1,9.695937195E0,-7.705675964E0,1.210832062E0,1.244406503E1
1.519538450E1,1.087518494E1,-8.302185516E0,7.433541870E-1,1.370213513E1
1.520532550E1,1.161644348E1,-8.669072571E0,3.766168213E-1,1.449953167E1
1.521526650E1,1.276605286E1,-9.132059784E0,-2.191442871E-1,1.569760000E1
1.522520750E1,1.408780426E1,-9.865085449E0,-6.279441833E-1,1.720989406E1
1.523514850E1,1.510254410E1,-1.106888214E1,-1.011596375E0,1.875180837E1
1.524508950E1,1.618733826E1,-1.227986389E1,-9.687854004E-1,2.034117799E1
1.525503050E1,1.684177734E1,-1.278296768E1,-8.259823608E-1,2.115967802E1
1.526497150E1,1.686288345E1,-1.232851273E1,-6.280938721E-1,2.089841062E1
1.527491250E1,1.641306885E1,-1.107606720E1,-3.821553040E-1,1.980439689E1
1.528485350E1,1.583961136E1,-9.365424500E0,-2.380050659E-1,1.840274736E1
1.529479450E1,1.511032791E1,-7.637567596E0,-2.197430420E-1,1.693229859E1
1.530473650E1,1.417701874E1,-6.373745728E0,-6.012995911E-1,1.555551529E1
1.531467750E1,1.307905197E1,-5.631139984E0,-1.118324432E0,1.428362655E1
1.532461850E1,1.179562088E1,-5.477858734E0,-1.681004333E0,1.311370977E1
1.533455950E1,1.056907150E1,-5.872887268E0,-2.268831940E0,1.230218174E1
1.534450050E1,9.332792358E0,-6.332431641E0,-2.531385956E0,1.155891944E1
1.535444150E1,7.992329865E0,-6.726861420E0,-2.767145691E0,1.080671534E1
1.536438250E1,6.987619171E0,-6.996151428E0,-2.838696899E0,1.028742711E1
1.537432350E1,6.160289612E0,-6.910679169E0,-2.775977325E0,9.665024821E0
1.538426450E1,5.610632629E0,-6.700067139E0,-2.769989777E0,9.167493743E0
1.539420550E1,5.690716095E0,-6.471492462E0,-2.680326233E0,9.024888535E0
1.540414650E1,6.152056732E0,-6.312373352E0,-2.402204590E0,9.135887820E0
1.541408750E1,6.617289276E0,-6.133046265E0,-1.990560608E0,9.239323860E0
1.542402850E1,6.965614929E0,-5.906267853E0,-1.481918335E0,9.252019955E0
1.543397050E1,7.293582916E0,-5.700296173E0,-9.120533752E-1,9.301697134E0
1.544391150E1,7.634274445E0,-5.518574066E0,-3.408412170E-1,9.426185801E0
1.545385250E1,7.894732819E0,-5.464686127E0,1.839674377E-1,9.603303846E0
1.546379350E1,7.975714417E0,-5.608387299E0,6.553372192E-1,9.772179666E0
1.547373450E1,7.946375427E0,-5.754633179E0,1.002165985E0,9.862303084E0
1.548367550E1,7.981701965E0,-5.833668823E0,1.196461945E0,9.958452660E0
1.549361650E1,8.090226288E0,-5.956563263E0,1.254990234E0,1.012459420E1
1.550355750E1,8.352331238E0,-6.162984009E0,1.189875641E0,1.044794779E1
1.551349850E1,8.562045135E0,-6.259533234E0,1.118923187E0,1.066500644E1
1.552343946E1,8.777297516E0,-6.231840820E0,1.093775482E0,1.082003403E1
1.553338046E1,8.815767517E0,-6.100863190E0,1.093925171E0,1.077659319E1
1.554332146E1,8.634943542E0,-5.873486023E0,1.075663147E0,1.049843509E1
1.555326246E1,8.308023376E0,-5.626200256E0,1.070424042E0,1.009074771E1
1.556320446E1,7.841593323E0,-5.312752075E0,1.061293030E0,9.531120781E0
1.557314546E1,7.440128174E0,-5.116510162E0,1.034498749E0,9.088694689E0
1.558308646E1,7.163653107E0,-5.152435455E0,9.521699524E-1,8.875367292E0
1.559302746E1,6.877448273E0,-5.316643982E0,8.385562134E-1,8.733222458E0
1.560296846E1,6.565047913E0,-5.507646790E0,7.149133301E-1,8.599135324E0
1.561290946E1,6.212980042E0,-5.647156677E0,6.462062073E-1,8.420753054E0
1.562285046E1,5.823340302E0,-5.709427185E0,6.496490479E-1,8.181130419E0
1.563279146E1,5.373226318E0,-5.637576599E0,7.018904114E-1,7.819621546E0
1.564273246E1,4.920567627E0,-5.534141693E0,7.312294006E-1,7.441330962E0
1.565267346E1,4.482877808E0,-5.545218658E0,7.445516968E-1,7.169379376E0
1.566261446E1,4.233346710E0,-5.721252594E0,7.183561707E-1,7.153320292E0
1.567255546E1,4.241579590E0,-5.994434509E0,6.885681152E-1,7.375524968E0
1.568249646E1,4.293970642E0,-6.192622375E0,5.909710693E-1,7.558836059E0
1.569243846E1,4.676125946E0,-6.342311096E0,3.848497009E-1,7.889180768E0
1.570237946E1,5.273084564E0,-6.625971222E0,1.350192261E-1,8.469188016E0
1.571232046E1,5.810018005E0,-7.146887970E0,-1.058299255E-1,9.211162622E0
1.572226146E1,6.280339966E0,-8.004754028E0,-3.351530457E-1,1.017993540E1
1.573220246E1,6.673572235E0,-9.102870483E0,-5.562432861E-1,1.130080634E1
1.574214346E1,6.859335938E0,-1.025936554E1,-7.021897888E-1,1.236115453E1
1.575208446E1,6.765780487E0,-1.137319931E1,-7.325765991E-1,1.325375858E1
1.576202546E1,6.505621490E0,-1.226758942E1,-7.276368713E-1,1.390490261E1
1.577196646E1,6.342011719E0,-1.293056076E1,-5.751040649E-1,1.441357898E1
1.578190746E1,6.617139587E0,-1.353215973E1,-3.487747192E-1,1.506743266E1
1.579184846E1,7.162754974E0,-1.407148819E1,5.972579956E-2,1.578972469E1
1.580178946E1,7.540419617E0,-1.426234131E1,6.078858948E-1,1.614440562E1
1.581173046E1,7.738158417E0,-1.385593643E1,1.196162567E0,1.591530317E1
1.582167146E1,8.027357025E0,-1.312171326E1,1.737436981E0,1.548019725E1
1.583161346E1,8.499624939E0,-1.224992615E1,2.058219910E0,1.505126519E1
1.584155446E1,8.902736664E0,-1.129551086E1,2.093995514E0,1.453382617E1
1.585149546E1,8.990454254E0,-1.023586441E1,1.938618622E0,1.376079322E1
1.586143646E1,8.744964752E0,-9.236392822E0,1.731150055E0,1.283675354E1
1.587137746E1,8.479267273E0,-8.460855560E0,1.514849854E0,1.207389003E1
1.588131846E1,8.421038361E0,-7.817044373E0,1.301992493E0,1.156353122E1
1.589125946E1,8.396339722E0,-7.232809296E0,1.073567505E0,1.113393903E1
1.590120046E1,8.215066681E0,-6.718478851E0,9.065148926E-1,1.065115242E1
1.591114146E1,7.997718658E0,-6.219117279E0,8.125103760E-1,1.016371470E1
1.592108246E1,7.791297913E0,-5.786965942E0,8.180488586E-1,9.739738288E0
1.593102346E1,7.636968842E0,-5.453758850E0,8.204438782E-1,9.420186136E0
1.594096446E1,7.521858215E0,-5.185816040E0,8.396040344E-1,9.174746533E0
1.595090546E1,7.430548096E0,-4.931794281E0,8.155041504E-1,8.955483619E0
1.596084746E1,7.201075287E0,-4.662953339E0,7.345225525E-1,8.610350893E0
1.597078846E1,7.023544464E0,-4.445605316E0,6.132746887E-1,8.334847888E0
1.598072946E1,6.883585510E0,-4.381987610E0,5.343887329E-1,8.177477374E0
1.599067046E1,6.836433563E0,-4.367767181E0,6.224057007E-1,8.136436743E0
1.600061146E1,6.853049011E0,-4.416715393E0,8.975335693E-1,8.202269328E0
1.601055246E1,6.881489868E0,-4.425397339E0,1.270258484E0,8.279649813E0
1.602049346E1,6.986421661E0,-4.393813019E0,1.650617523E0,8.416663156E0
1.603043446E1,7.216193848E0,-4.414769440E0,2.023641815E0,8.698204933E0
1.604037546E1,7.534132690E0,-4.502487030E0,2.364932098E0,9.090019179E0
1.605031646E1,7.886949005E0,-4.540507965E0,2.572550354E0,9.457176773E0
1.606025746E1,8.336015167E0,-4.663552094E0,2.522704010E0,9.879367516E0
1.607019846E1,9.240883484E0,-5.083279266E0,2.028132477E0,1.073997100E1
1.608013946E1,1.022239243E1,-5.396278381E0,1.109792175E0,1.161244014E1
1.609008146E1,1.046369064E1,-5.139113159E0,-1.571731567E-2,1.165759636E1
1.610002246E1,9.904752960E0,-4.590354309E0,-1.170416107E0,1.097931499E1
1.610996346E1,8.995843048E0,-4.399650879E0,-2.331701202E0,1.028197211E1
1.611990446E1,8.604257355E0,-4.872367859E0,-3.549568634E0,1.050583888E1
1.612984546E1,8.469387817E0,-5.718558197E0,-4.318220215E0,1.109411843E1
1.613978646E1,8.293353882E0,-6.305637360E0,-4.170776825E0,1.122212816E1
1.614972746E1,8.472980347E0,-6.487209778E0,-3.351380768E0,1.118512582E1
1.615966846E1,9.131610718E0,-6.605314178E0,-2.356549530E0,1.151389662E1
1.616960946E1,9.905651093E0,-6.827452240E0,-1.668729858E0,1.214580944E1
1.617955046E1,1.078522202E1,-7.388934631E0,-1.319206696E0,1.313992676E1
1.618949146E1,1.152438492E1,-8.354426880E0,-1.140628052E0,1.427966836E1
1.619943246E1,1.188318878E1,-9.440268860E0,-9.991722107E-1,1.520944433E1
1.620937346E1,1.239781860E1,-1.063224014E1,-8.734336853E-1,1.635583452E1
1.621931446E1,1.304297699E1,-1.188633224E1,-6.679110718E-1,1.765928221E1
1.622925646E1,1.379291748E1,-1.269854324E1,-8.173004150E-2,1.874844668E1
1.623919746E1,1.453941513E1,-1.258223511E1,7.252418518E-1,1.924144507E1
1.624913846E1,1.534459076E1,-1.157423126E1,1.292861481E0,1.926371682E1
1.625907946E1,1.611159576E1,-9.862989807E0,1.595981140E0,1.895809172E1
1.626902046E1,1.707214828E1,-7.983797607E0,1.583856354E0,1.891316664E1
1.627896146E1,1.812356186E1,-6.172863464E0,1.088835754E0,1.917689498E1
1.628890246E1,1.861977997E1,-4.584516449E0,5.279521179E-1,1.918313662E1
1.629884346E1,1.853849899E1,-3.382516022E0,-5.748046875E-2,1.884464549E1
1.630878446E1,1.784214706E1,-2.613415375E0,-8.271798706E-1,1.805149241E1
1.631872546E1,1.659688660E1,-2.372865601E0,-1.685644684E0,1.685017905E1
1.632866646E1,1.514325943E1,-2.617157593E0,-2.375260620E0,1.555023096E1
1.633860746E1,1.369951172E1,-3.219804382E0,-2.815644836E0,1.435171131E1
1.634854846E1,1.238749008E1,-3.867507477E0,-3.013982391E0,1.332259789E1
1.635848946E1,1.124656265E1,-4.362528076E0,-2.846331024E0,1.239428994E1
1.636843146E1,1.026280838E1,-4.638554077E0,-2.443219299E0,1.152435423E1
1.637837246E1,9.474697266E0,-4.745132446E0,-2.098336487E0,1.080227690E1
1.638831346E1,8.838220825E0,-4.829856262E0,-1.751058655E0,1.022290885E1
1.639825446E1,8.346643066E0,-4.984335022E0,-1.394051056E0,9.821070432E0
1.640819546E1,7.965984650E0,-5.076842651E0,-9.581575012E-1,9.494698971E0
1.641813646E1,7.702532501E0,-4.937931519E0,-4.077520752E-1,9.158517149E0
1.642807746E1,7.543413391E0,-4.647086334E0,7.664062500E-2,8.860269227E0
1.643801846E1,7.476801910E0,-4.328548737E0,4.782554626E-1,8.652608235E0
1.644795946E1,7.447911987E0,-4.127217407E0,8.683442688E-1,8.559166914E0
1.645790046E1,7.470365295E0,-4.057312775E0,1.179996185E0,8.582571619E0
1.646784146E1,7.527696075E0,-4.113146667E0,1.357077942E0,8.684805366E0
1.647778246E1,7.613168335E0,-4.301904144E0,1.440753937E0,8.862419719E0
1.648772346E1,7.636519775E0,-4.577331390E0,1.412313080E0,9.014600666E0
1.649766546E1,7.575746155E0,-4.858147430E0,1.252295837E0,9.086350814E0
1.650760646E1,7.502847748E0,-5.144202576E0,1.050216064E0,9.157428583E0
1.651755075E1,7.463030548E0,-5.458997955E0,8.351133728E-1,9.284120744E0
1.652749175E1,7.410040741E0,-5.799988861E0,6.819818115E-1,9.434705812E0
1.653743275E1,7.251670074E0,-6.124663696E0,6.221063232E-1,9.512373024E0
1.654737375E1,6.950646057E0,-6.285579071E0,6.465055847E-1,9.393505966E0
1.655731475E1,6.589596863E0,-6.280190277E0,7.482939148E-1,9.133647711E0
1.656725575E1,6.255192261E0,-6.118227081E0,9.496252441E-1,8.801245420E0
1.657719675E1,6.050867157E0,-5.902375946E0,1.107696533E0,8.525140865E0
1.658713775E1,6.030958557E0,-5.801934814E0,1.262324982E0,8.463354717E0
1.659707875E1,6.181695099E0,-5.868546295E0,1.426982574E0,8.642306936E0
1.660701975E1,6.308032379E0,-6.030210114E0,1.567091217E0,8.866255207E0
1.661696075E1,6.278094635E0,-6.147715759E0,1.681752777E0,8.946349742E0
1.662690175E1,6.027665405E0,-6.140381012E0,1.707199860E0,8.772203861E0
1.663684275E1,5.661526794E0,-5.970184937E0,1.540746002E0,8.370776073E0
1.664678475E1,5.215753784E0,-5.698499908E0,1.227297821E0,7.821972174E0
1.665672575E1,4.939278717E0,-5.455854492E0,8.411009216E-1,7.407447148E0
1.666666675E1,5.486091614E0,-5.751040649E0,3.311114502E-1,7.954954716E0
1.667660775E1,6.447242889E0,-6.882837067E0,-1.158590698E-1,9.431532764E0
1.668654875E1,7.056026917E0,-8.027656403E0,-3.064128113E-1,1.069227160E1
1.669648975E1,7.278614044E0,-8.840915222E0,-3.968247986E-1,1.145851100E1
1.670643075E1,7.092550964E0,-9.253307648E0,-4.553530884E-1,1.166770449E1
1.671637175E1,6.808142395E0,-9.493857422E0,-4.718188477E-1,1.169216595E1
1.672631275E1,7.133715363E0,-1.012674133E1,-6.207591248E-1,1.240266612E1
1.673625375E1,8.337661743E0,-1.137798935E1,-9.048683167E-1,1.413485167E1
1.674619475E1,9.799671478E0,-1.301139267E1,-1.142723694E0,1.632898398E1
1.675613575E1,1.064002396E1,-1.442340637E1,-1.038839722E0,1.795338267E1
1.676607675E1,1.062206131E1,-1.517080215E1,-6.939569092E-1,1.853275481E1
