"Time (s)","Acceleration x (m/s^2)","Acceleration y (m/s^2)","Acceleration z (m/s^2)","Absolute acceleration (m/s^2)"
3.427545833E-2,-1.546434174E0,4.637506256E0,8.807085571E0,1.007286847E1
4.425745834E-2,-1.963916016E0,4.690046997E0,9.038803711E0,1.037079937E1
5.423945833E-2,-2.509980469E0,4.693489838E0,9.112899628E0,1.055337806E1
6.422145833E-2,-2.909649353E0,5.222340088E0,7.571255493E0,9.646906504E0
7.420445833E-2,-2.736459503E0,5.192102966E0,8.295299835E0,1.016160141E1
8.418645833E-2,-2.282902679E0,4.597838745E0,9.070687408E0,1.042253020E1
9.416845833E-2,-1.931283875E0,4.087998962E0,9.125922546E0,1.018450074E1
1.041504583E-1,-1.744622040E0,3.890409851E0,9.236692200E0,1.017327271E1
1.141324583E-1,-1.692081299E0,3.848347321E0,9.441915436E0,1.033550595E1
1.241144583E-1,-1.683698730E0,3.831881561E0,9.830058289E0,1.068401627E1
1.340974583E-1,-1.865869904E0,3.844006348E0,1.035337006E1,1.120045208E1
1.440794583E-1,-2.210004272E0,3.798201599E0,1.108115662E1,1.192067474E1
1.540614583E-1,-2.116897888E0,3.534001007E0,1.145462997E1,1.217287836E1
1.640434583E-1,-1.841320953E0,2.772384796E0,1.040635986E1,1.092560781E1
1.740254583E-1,-3.649411011E-1,1.854194183E0,1.097487762E1,1.113638886E1
1.840074583E-1,1.360371094E0,1.475781097E0,1.367451370E1,1.382102979E1
1.939904583E-1,1.202000427E0,2.086511078E0,1.516062332E1,1.535066230E1
2.039724583E-1,1.285826111E0,1.805245972E0,1.370759491E1,1.388561918E1
2.139544583E-1,1.418600006E0,1.165775757E0,1.214933533E1,1.228730271E1
2.239364583E-1,7.518864441E-1,1.433269501E0,1.118623810E1,1.130272168E1
2.339184583E-1,1.855691071E0,1.198557587E0,1.049302963E1,1.072304996E1
2.439014583E-1,2.585423584E0,7.128176880E-1,9.970017242E0,1.032442579E1
2.538834583E-1,2.385888519E0,1.249900818E-1,1.028675858E1,1.056056289E1
2.638654583E-1,2.167492676E0,-6.906637573E-1,9.957144012E0,1.021370441E1
2.738474583E-1,1.375789032E0,-1.013242950E0,9.374256134E0,9.528700583E0
2.838294583E-1,-3.667373657E-2,-1.216370544E0,9.006021881E0,9.087867318E0
2.938114583E-1,-1.627266083E0,-1.352736969E0,9.286837921E0,9.524875368E0
3.037944583E-1,-2.419119415E0,-8.631051636E-1,1.003123993E1,1.035484736E1
3.137764583E-1,-2.393522644E0,2.847079468E-1,1.047821045E1,1.075187907E1
3.237584583E-1,-2.179318085E0,9.508227539E-1,1.006357269E1,1.034064730E1
3.337404583E-1,-1.835034027E0,9.181906128E-1,9.250463562E0,9.475310021E0
3.437224583E-1,-1.462309113E0,9.997709656E-1,8.722062378E0,8.900127080E0
3.537044583E-1,-1.350491638E0,1.037642212E0,8.210126953E0,8.384909875E0
3.636874583E-1,-1.199904785E0,9.927355957E-1,7.616461487E0,7.774045346E0
3.736694583E-1,-1.020877075E0,1.070424042E0,7.618557129E0,7.760825366E0
3.836514583E-1,-1.049018555E0,1.102906494E0,7.619754639E0,7.770296224E0
3.936334583E-1,-9.189390564E-1,1.166823578E0,7.198530579E0,7.350154335E0
4.036154583E-1,4.013154602E-1,1.066981201E0,7.373367004E0,7.460968031E0
4.135974583E-1,1.485510864E0,9.630972290E-1,7.374115448E0,7.583658579E0
4.235804583E-1,1.902843018E0,1.235231323E0,6.837331696E0,7.203867898E0
4.335624583E-1,2.306254120E0,1.400936737E0,7.380851440E0,7.858651271E0
4.435444583E-1,2.930007019E0,1.653760986E0,8.094417572E0,8.765812134E0
4.535264583E-1,1.602866821E0,1.470392303E0,8.007448425E0,8.297618083E0
4.635084583E-1,1.192719727E0,1.292412415E0,6.818321228E0,7.041478152E0
4.734904583E-1,1.448388062E0,1.535357208E0,6.894812164E0,7.210657703E0
4.834734583E-1,1.499282227E0,1.817670135E0,7.338339844E0,7.707334402E0
4.934554583E-1,1.817221069E0,1.576072540E0,7.527845764E0,7.902832335E0
5.034374583E-1,2.261646881E0,1.220861206E0,7.723638611E0,8.140033298E0
5.134194583E-1,2.473755798E0,8.921447754E-1,7.630681915E0,8.071102561E0
5.234014583E-1,2.260898438E0,6.870712280E-1,7.050488434E0,7.435934089E0
5.333834583E-1,2.000889130E0,4.942721558E-1,6.530769196E0,6.848270479E0
5.433654583E-1,2.152074738E0,3.035687256E-1,6.106251984E0,6.481503910E0
5.533484583E-1,2.424657898E0,3.141966248E-1,5.647605743E0,6.154115377E0
5.633304583E-1,2.527194672E0,6.810836792E-1,5.054389343E0,5.691874869E0
5.733124583E-1,2.304607544E0,1.176403656E0,4.421355743E0,5.122843752E0
5.832944583E-1,2.093396759E0,1.379980316E0,4.167932739E0,4.863981803E0
5.932764583E-1,1.960772552E0,1.287622375E0,3.927382965E0,4.574596959E0
6.032584583E-1,2.154769135E0,7.460485840E-1,3.632945251E0,4.289278461E0
6.132414583E-1,2.295626221E0,7.409591675E-2,3.735631714E0,4.385240501E0
6.232234583E-1,2.686164093E0,-4.635859680E-1,3.501518555E0,4.437456667E0
6.332054583E-1,3.529360657E0,-9.780661011E-1,3.513343964E0,5.075094654E0
6.431874583E-1,4.251159668E0,-1.164129181E0,3.239862671E0,5.470307615E0
6.531694583E-1,4.518803101E0,-1.443148956E0,3.422931976E0,5.849677229E0
6.631514583E-1,5.118755493E0,-2.031575317E0,3.518732758E0,6.535322202E0
6.731344583E-1,5.600902863E0,-2.285746765E0,3.442092133E0,6.960082571E0
6.831164583E-1,5.741011505E0,-2.240840149E0,3.343746643E0,7.011506207E0
6.930984583E-1,6.315965881E0,-3.433260498E0,3.329077148E0,7.922212906E0
7.030804583E-1,6.917265472E0,-4.716392212E0,3.585942993E0,9.107793600E0
7.130624583E-1,7.472760315E0,-5.182373199E0,3.503464508E0,9.745429814E0
7.230444583E-1,8.126151581E0,-5.647605743E0,3.451672211E0,1.048064078E1
7.330264583E-1,8.630901947E0,-6.245013428E0,3.803889771E0,1.131203954E1
7.430094583E-1,9.410929871E0,-6.981332245E0,4.088298340E0,1.241043046E1
7.529914583E-1,1.052057236E1,-7.857759705E0,4.153862000E0,1.377248706E1
7.629734583E-1,1.182136734E1,-8.762927399E0,4.367767181E0,1.534962581E1
7.729554583E-1,1.316123108E1,-9.377100220E0,4.478536835E0,1.676917721E1
7.829374583E-1,1.450034637E1,-9.720486145E0,4.378844147E0,1.799783798E1
7.929194583E-1,1.564546509E1,-9.636510773E0,4.473746796E0,1.891183037E1
8.029014583E-1,1.650452866E1,-9.034163361E0,4.689597931E0,1.939092320E1
8.128844583E-1,1.710672638E1,-7.994425507E0,5.054239655E0,1.954728281E1
8.228664583E-1,1.742975464E1,-6.640491028E0,5.802832947E0,1.953369750E1
8.328484583E-1,1.751073624E1,-5.127886505E0,6.538553009E0,1.938230582E1
8.428304583E-1,1.762599655E1,-3.539838867E0,7.065606995E0,1.931654772E1
8.528124583E-1,1.783241730E1,-2.440973969E0,7.457342377E0,1.948243865E1
8.627944583E-1,1.806323730E1,-1.653611298E0,7.214846649E0,1.952098831E1
8.727774583E-1,1.818957458E1,-8.921447754E-1,6.651867371E0,1.938824091E1
8.827594583E-1,1.801234314E1,-2.025288391E-1,5.869743805E0,1.894569649E1
8.927420000E-1,1.763048721E1,4.067042542E-1,4.929249573E0,1.831111654E1
9.027240000E-1,1.748334320E1,1.107397156E0,3.804638214E0,1.792676462E1
9.127060000E-1,1.676423859E1,2.261048126E0,2.067650299E0,1.704192512E1
9.226880000E-1,1.664703232E1,2.566562805E0,1.657802582E0,1.692510677E1
9.326700000E-1,1.646935181E1,2.829565887E0,5.263055420E-1,1.671894104E1
9.426520000E-1,1.592179047E1,3.832630005E0,5.568420410E-1,1.638604704E1
9.526350000E-1,1.621622818E1,4.527934113E0,8.554710388E-1,1.685823462E1
9.626170000E-1,1.670765625E1,4.906197510E0,-1.986369324E-1,1.741424727E1
9.725990000E-1,1.692919556E1,5.383554840E0,-5.242098999E-1,1.777231333E1
9.825810000E-1,1.680974396E1,5.660329285E0,-7.301815796E-1,1.775218253E1
9.925630000E-1,1.639555527E1,5.568869476E0,-6.071374512E-1,1.732614082E1
1.002545000E0,1.551987625E1,5.517526245E0,-1.849553833E0,1.657499635E1
1.012527000E0,1.393542114E1,5.517077179E0,-3.826792145E0,1.546862764E1
1.022510000E0,1.153546188E1,4.649631042E0,-9.243278503E0,1.549593970E1
1.032492000E0,8.647367706E0,3.698508911E0,-1.167661835E1,1.499331026E1
1.042474000E0,9.074579315E0,3.118016052E0,-4.848717041E0,1.075081722E1
1.052456000E0,1.014979340E1,8.208929443E-1,-3.347039795E0,1.071890137E1
1.062438000E0,9.088949432E0,-1.079105988E0,-4.492158508E0,1.019573242E1
1.072420000E0,7.132368164E0,-2.446063385E0,-4.319417725E0,8.689722158E0
1.082402000E0,5.711971893E0,-2.910996552E0,-3.102598114E0,7.122263607E0
1.092385000E0,5.614225159E0,-1.659449158E0,-1.504671021E0,6.044611693E0
1.102367000E0,5.337151337E0,-2.751578064E0,-8.463400269E-1,6.064046312E0
1.112349000E0,5.080135803E0,-3.069067841E0,-2.218386841E-1,5.939374512E0
1.122331000E0,4.894372101E0,-2.509531403E0,-1.259331207E0,5.642565127E0
1.132313000E0,4.814887390E0,-2.812950439E0,-1.303190002E0,5.726616360E0
1.142295000E0,4.814288635E0,-2.122136993E0,-5.858816528E-1,5.293779160E0
1.152277000E0,4.979844360E0,-1.521585846E0,-1.009500732E0,5.304070613E0
1.162260000E0,5.446274414E0,-1.531914368E0,-2.168540497E0,6.058979659E0
1.172242000E0,5.825735321E0,-3.029400330E0,-1.429976349E0,6.720215082E0
1.182224000E0,5.573509827E0,-3.501368866E0,-7.048841858E-1,6.619702217E0
1.192206000E0,4.821324005E0,-2.756817169E0,-1.596879272E0,5.778860569E0
1.202188000E0,4.439617767E0,-3.382366333E0,-1.028660889E0,5.675275425E0
1.212170000E0,5.297184448E0,-3.341800690E0,-8.339158630E-1,6.318481668E0
1.222152000E0,6.464906158E0,-2.095791779E0,-1.644180908E0,6.992187474E0
1.232134000E0,7.611970825E0,-6.715036011E-1,-2.744991760E0,8.119605698E0
1.242117000E0,8.471034393E0,6.881190491E-1,-4.859195251E0,9.789980082E0
1.252099000E0,9.583221588E0,2.407743073E0,-6.674769745E0,1.192425737E1
1.262081000E0,9.792935486E0,3.087928619E0,-7.204667816E0,1.254368873E1
1.272063000E0,9.987830200E0,2.346370697E0,-6.182144165E0,1.197836024E1
1.282045000E0,1.108519821E1,9.928852844E-1,-4.414320374E0,1.197303909E1
1.292027000E0,1.323068665E1,-9.325607300E-1,-3.320694580E0,1.367288379E1
1.302009000E0,1.542901520E1,-2.637664948E0,-3.846101990E0,1.611844555E1
1.311991000E0,1.656859543E1,-1.505419464E0,-4.251009979E0,1.717136361E1
1.321974000E0,1.803704178E1,1.667532349E-1,-6.039790192E0,1.902213837E1
1.331956000E0,1.945234863E1,-7.671546936E-1,-1.009859985E1,2.193089402E1
1.341938000E0,1.973780502E1,-2.143243103E0,-1.292277695E1,2.368908192E1
1.351920000E0,1.850945938E1,-3.145708466E0,-1.301423676E1,2.284438501E1
1.361902000E0,1.720641907E1,-4.080364838E0,-8.762328644E0,1.973546649E1
1.371884000E0,1.629436569E1,-5.403762817E0,-4.002676392E0,1.762749058E1
1.381866000E0,1.533066971E1,-7.162455597E0,-1.428928528E0,1.698152056E1
1.391848000E0,1.385204453E1,-8.638236694E0,-6.261479187E-1,1.633677851E1
1.401831000E0,1.172646469E1,-8.743617554E0,-1.283431091E0,1.468359688E1
1.411813000E0,9.491312714E0,-7.525750122E0,-1.664239197E0,1.222667674E1
1.421795000E0,7.507039032E0,-5.710774384E0,-7.909552002E-1,9.465420710E0
1.431777000E0,5.846242676E0,-4.419858856E0,1.597178650E-1,7.330703618E0
1.441759000E0,4.481081543E0,-3.826792145E0,5.947132874E-1,5.922677925E0
1.451741000E0,3.226390686E0,-3.876488800E0,4.134402466E-1,5.060404639E0
1.461723000E0,1.833387451E0,-4.649032288E0,5.400769043E-1,5.026578739E0
1.471705000E0,1.119821320E0,-6.515950012E0,2.014959869E0,6.911705117E0
1.481688000E0,6.265969849E-1,-8.093070374E0,3.197949829E0,8.724522621E0
1.491670000E0,-2.469863892E-1,-8.888516235E0,3.483106842E0,9.549803999E0
1.501652000E0,-4.812492371E-1,-8.912316742E0,3.011287994E0,9.419599032E0
1.511634000E0,4.131408691E-1,-8.734935608E0,2.091450806E0,8.991326483E0
1.521616000E0,1.708097992E0,-8.713081055E0,1.098715210E0,8.946650509E0
1.531598000E0,3.945794678E0,-7.936795349E0,1.028062134E0,8.922943898E0
1.541580000E0,6.251000977E0,-7.086563416E0,1.129401398E0,9.516824143E0
1.551562000E0,8.220006409E0,-5.994883575E0,6.249504089E-1,1.019302200E1
1.561545000E0,9.516161041E0,-4.955594788E0,2.604583740E-2,1.072920869E1
1.571527000E0,1.084988754E1,-4.473597107E0,-3.176394653E-1,1.174027366E1
1.581509000E0,1.212104416E1,-4.480782166E0,-5.029541016E-1,1.293252037E1
1.591491000E0,1.096305222E1,-6.383176117E0,-6.861730957E-1,1.270449860E1
1.601473000E0,1.072384964E1,-7.022496643E0,-1.115480347E0,1.286703954E1
1.611455000E0,1.250095413E1,-6.006559296E0,-1.614841919E0,1.396281931E1
1.621437000E0,1.218765564E1,-5.444328461E0,-2.863545227E-1,1.335146663E1
1.631419000E0,1.157662628E1,-4.086801453E0,-7.740403748E-1,1.230119347E1
1.641402000E0,9.883497162E0,-2.937491455E0,-1.360520782E0,1.040016293E1
1.651384000E0,8.649762726E0,-2.408192139E0,-1.156644745E0,9.052933870E0
1.661366000E0,8.676856384E0,-2.556234283E0,-5.622308350E-1,9.063016823E0
1.671348000E0,8.066874847E0,-3.353476410E0,-1.110690308E-1,8.736853562E0
1.681330000E0,6.955885162E0,-3.320245514E0,-3.150947571E-1,7.714120389E0
1.691312000E0,5.661975861E0,-3.141217804E0,1.571731567E-1,6.476876048E0
1.701294000E0,6.553521881E0,-3.038980408E0,1.003662872E0,7.293242772E0
1.711276000E0,7.021448822E0,-3.610192566E0,7.209008789E-1,7.928047174E0
1.721258000E0,7.138505402E0,-3.807781677E0,3.824546814E-1,8.099613093E0
1.731241000E0,7.494914246E0,-3.561693420E0,2.550695801E-1,8.302075648E0
1.741223000E0,8.311915283E0,-3.903732147E0,3.320095825E-1,9.188976587E0
1.751205000E0,1.083641556E1,-6.555617523E0,1.063238983E0,1.270962235E1
1.761187000E0,9.468260651E0,-8.447533264E0,2.760260010E0,1.298567724E1
1.771169000E0,8.397836609E0,-7.045399017E0,1.974843292E0,1.113828142E1
1.781151000E0,8.115673370E0,-5.325924683E0,1.570833435E0,9.833470682E0
1.791133000E0,8.366401978E0,-5.081632690E0,7.571255493E-1,9.817989201E0
1.801115000E0,7.344926147E0,-4.178410950E0,1.410816193E0,8.567231788E0
1.811097000E0,6.052813110E0,-2.747237091E0,2.344125366E-1,6.651226009E0
1.821080000E0,6.701863403E0,-2.057770844E0,-1.040037231E0,7.087388191E0
1.831062000E0,7.764653320E0,-1.138831787E0,3.989204407E-1,7.857856994E0
1.841044000E0,8.525371399E0,-2.932402039E0,6.631210327E-2,9.015838092E0
1.851026000E0,9.203161926E0,-5.244643707E0,4.857398987E-1,1.060379273E1
1.861008000E0,9.448501740E0,-5.345234528E0,1.479972382E0,1.095609582E1
1.870990000E0,9.477541351E0,-5.306914215E0,1.351838837E0,1.094598542E1
1.880972000E0,9.543703766E0,-4.632416840E0,9.099577332E-1,1.064751569E1
1.890956958E0,9.914183350E0,-3.879033508E0,7.652087402E-1,1.067349413E1
1.900938958E0,1.075498489E1,-3.879332886E0,1.643582153E0,1.155076993E1
1.910921958E0,1.134475845E1,-3.827390900E0,7.897576904E-1,1.199900757E1
1.920903958E0,1.186537582E1,-3.855831757E0,5.195695496E-1,1.248697459E1
1.930885958E0,1.223869949E1,-4.077520752E0,1.013242950E0,1.293980688E1
1.940867958E0,1.261411880E1,-4.660708008E0,1.083596649E0,1.349119617E1
1.950849958E0,1.279434402E1,-4.898563385E0,1.447639618E0,1.377631383E1
1.960831958E0,1.225666214E1,-4.334985352E0,1.070573730E0,1.304469214E1
1.970813958E0,1.146720383E1,-2.873724060E0,-2.609074402E-1,1.182468292E1
1.980795958E0,1.112980545E1,-2.314936066E0,-4.276606750E-1,1.137604466E1
1.990777958E0,1.100331848E1,-2.492766266E0,-1.655557251E-1,1.128336430E1
2.000759958E0,1.162198196E1,-3.968397675E0,3.902384949E-1,1.228702287E1
2.010742958E0,1.404738831E1,-7.940238190E0,2.370769958E0,1.630941602E1
2.020724958E0,1.342588074E1,-1.006162674E1,3.486250305E0,1.713605986E1
2.030706958E0,1.119117783E1,-9.004075928E0,2.980003052E0,1.466956927E1
2.040688958E0,8.798253937E0,-7.003635864E0,1.994452515E0,1.142094692E1
2.050670958E0,6.974147186E0,-6.099366302E0,9.837542725E-1,9.317122449E0
2.060652958E0,5.646408234E0,-5.926026764E0,2.127076721E-1,8.188098906E0
2.070634958E0,4.845723267E0,-5.946384430E0,-1.060993652E0,7.743786496E0
2.080616958E0,5.223238220E0,-6.108946381E0,-1.767524414E0,8.229555634E0
2.090598958E0,6.274801483E0,-6.459966431E0,-2.240540771E0,9.280319116E0
2.100580958E0,7.169041901E0,-6.099965057E0,-3.347339172E0,9.990466206E0
2.110563958E0,8.605155487E0,-5.859564972E0,-4.073479156E0,1.117928598E1
2.120545958E0,9.387428741E0,-5.175936584E0,-4.545447693E0,1.164367780E1
2.130527958E0,9.365873566E0,-4.453538818E0,-4.437073059E0,1.128012469E1
2.140509958E0,8.759484558E0,-3.715872803E0,-3.751498718E0,1.022790414E1
2.150491958E0,8.411458282E0,-4.131109314E0,-2.377955017E0,9.668162424E0
2.160473958E0,8.031697998E0,-4.503684540E0,-8.396040344E-1,9.246419961E0
2.170455958E0,7.317982178E0,-4.468657379E0,-1.526824951E-2,8.574496781E0
2.180437958E0,6.568490753E0,-3.889960785E0,-2.728825378E-1,7.638804263E0
2.190419958E0,6.368656311E0,-3.593277740E0,-9.187893677E-1,7.369911942E0
2.200401958E0,7.231013031E0,-4.639601898E0,-1.704206085E0,8.758868284E0
2.210384958E0,8.954229584E0,-6.772366791E0,-1.348246307E0,1.130756152E1
2.220366958E0,9.530381470E0,-7.477250977E0,6.363267517E-1,1.213022526E1
2.230348958E0,8.224946136E0,-6.143823853E0,1.272354126E-1,1.026705894E1
2.240330958E0,7.172335052E0,-4.271068268E0,-1.456770630E0,8.473877207E0
2.250312958E0,7.313042450E0,-3.702700195E0,-1.704954529E0,8.372421905E0
2.260294958E0,7.525750122E0,-3.717669067E0,-1.426533508E0,8.514280712E0
2.270276958E0,7.196584625E0,-3.374432831E0,-1.391356659E0,8.069293683E0
2.280258958E0,6.721472626E0,-3.126697998E0,-1.663191376E0,7.597410097E0
2.290240958E0,6.689588928E0,-3.563639374E0,-1.793869629E0,7.788972581E0
2.300222958E0,6.662794647E0,-3.897145844E0,-1.202599182E0,7.811966656E0
2.310204958E0,6.570287018E0,-4.054019623E0,-1.050066376E0,7.791430292E0
2.320187958E0,7.076384583E0,-4.680167542E0,-7.253915405E-1,8.515009094E0
2.330169958E0,7.458689575E0,-5.130730591E0,-9.238787842E-1,9.099999922E0
2.340151958E0,7.066954193E0,-4.625980225E0,-1.027762756E0,8.508691491E0
2.350133958E0,6.868466949E0,-4.387825470E0,-1.599573669E0,8.305870605E0
2.360115958E0,6.343957672E0,-4.335135040E0,-2.405647430E0,8.051480257E0
2.370097958E0,5.578748932E0,-4.457879791E0,-2.609074402E0,7.602789035E0
2.380079958E0,5.200635223E0,-5.280269623E0,-2.883753204E0,7.952602502E0
2.390061958E0,5.173990631E0,-5.948629761E0,-3.849694519E0,8.773626558E0
2.400043958E0,5.306914215E0,-6.298751678E0,-4.324507141E0,9.302632595E0
2.410025958E0,5.831124115E0,-6.897656250E0,-4.967120819E0,1.030785911E1
2.420007958E0,6.318061523E0,-7.774532776E0,-5.320685577E0,1.134332210E1
2.429990958E0,6.749464417E0,-8.817414093E0,-5.804180145E0,1.252958772E1
2.439972958E0,7.074588318E0,-9.678124237E0,-5.620362396E0,1.324025536E1
2.449954958E0,7.763306122E0,-9.901160431E0,-5.601800995E0,1.377251154E1
2.459936958E0,9.190887451E0,-1.002165985E1,-5.880222015E0,1.481496167E1
2.469918958E0,9.361532593E0,-9.754166107E0,-4.396507416E0,1.421658631E1
2.479900958E0,1.000534378E1,-9.092841339E0,-2.913092194E0,1.383014005E1
2.489882958E0,9.467811584E0,-8.992250519E0,-1.728755035E0,1.317150787E1
2.499864958E0,9.916428680E0,-9.396410065E0,1.222208405E0,1.371575274E1
2.509846958E0,1.322305252E1,-1.037956558E1,2.511627045E0,1.699684589E1
2.519828958E0,1.321975937E1,-9.685009918E0,3.328478394E0,1.672244669E1
2.529810958E0,1.375744125E1,-8.050708466E0,-1.465003510E0,1.600710255E1
2.539793958E0,1.649165543E1,-5.474565582E0,1.810485077E0,1.747064461E1
2.549775958E0,1.871049133E1,-4.874313812E0,3.169209595E0,1.959299136E1
2.559757958E0,1.972074051E1,-5.291645966E0,3.248245239E0,2.067511113E1
2.569739958E0,2.013642609E1,-4.697381744E0,3.329675903E0,2.094344271E1
2.579721958E0,1.976759308E1,-3.535497894E0,3.788022766E0,2.043542507E1
2.589703958E0,1.791145294E1,-2.114802246E0,5.553900604E0,1.887162809E1
2.599685958E0,1.542796738E1,-5.233117676E-1,7.384593658E0,1.711222534E1
2.609667958E0,1.336705307E1,5.797444153E-1,8.446036377E0,1.582244424E1
2.619649958E0,1.060020676E1,1.639839935E0,9.752369843E0,1.449697126E1
2.629631958E0,8.507259064E0,2.627336426E0,1.092443253E1,1.409324588E1
2.639613958E0,7.175328827E0,3.087629242E0,1.233539841E1,1.460071409E1
2.649595958E0,6.939868469E0,-7.622149658E-1,7.157366180E0,9.998531725E0
2.659578958E0,5.478457489E0,-2.188299408E0,6.520889740E0,8.793415364E0
2.669560958E0,4.496499481E0,-1.059945831E0,7.115453339E0,8.483611788E0
2.679542958E0,3.460803223E0,-1.648072815E0,6.883735199E0,7.879029968E0
2.689524958E0,2.651585999E0,-2.208657074E0,6.858288116E0,7.677577109E0
2.699506958E0,1.749412079E0,-1.734293518E0,6.872059479E0,7.300234113E0
2.709488958E0,1.127904510E0,-1.688788147E0,6.168372803E0,6.494073993E0
2.719470958E0,8.930429077E-1,-1.748813324E0,5.085075531E0,5.451042729E0
2.729452958E0,7.869136047E-1,-1.557511139E0,4.294120331E0,4.635142218E0
2.739434958E0,1.648521881E0,-1.752256165E0,4.865182800E0,5.427525195E0
2.749416958E0,2.743794250E0,-2.241438904E0,5.421276398E0,6.476317860E0
2.759398958E0,3.569177856E0,-2.278561707E0,5.397924957E0,6.860646315E0
2.769380958E0,4.331392822E0,-1.945354614E0,5.317841492E0,7.129151877E0
2.779363958E0,4.653972015E0,-1.544937286E0,5.464985504E0,7.342503204E0
2.789345958E0,4.968917084E0,-1.425036621E0,5.565875702E0,7.596040988E0
2.799327958E0,5.248535614E0,-1.408570862E0,5.997727661E0,8.093450133E0
2.809309958E0,5.034331055E0,-1.225950623E0,6.347699890E0,8.193945203E0
2.819291958E0,4.816384277E0,-6.012995911E-1,6.594237213E0,8.187984070E0
2.829273958E0,4.737648010E0,1.642085266E-1,6.404282227E0,7.967879514E0
2.839255958E0,4.767735443E0,8.271798706E-1,6.080655212E0,7.771093591E0
2.849237958E0,5.057083740E0,1.123563538E0,5.842949524E0,7.808748307E0
2.859219958E0,5.257516937E0,1.350341949E0,5.782175903E0,7.930855307E0
2.869201958E0,5.327421570E0,1.488354950E0,5.656736755E0,7.911718635E0
2.879183958E0,5.170398102E0,1.824855194E0,5.462740173E0,7.739808991E0
2.889171583E0,4.990771637E0,2.301314392E0,4.998405762E0,7.428856549E0
2.899154583E0,5.547463989E0,1.893113251E0,4.474794617E0,7.374416679E0
2.909136583E0,7.148085480E0,2.824626160E-1,5.638175354E0,9.108453902E0
2.919118583E0,7.869734802E0,-8.554710388E-1,7.040758667E0,1.059418893E1
2.929100583E0,7.978708191E0,-1.372495880E0,7.782316589E0,1.122978098E1
2.939082583E0,7.681875458E0,-1.250499573E0,8.638835449E0,1.162774431E1
2.949064583E0,6.976242828E0,-8.478369141E-1,8.796757050E0,1.125920628E1
2.959046583E0,6.431375885E0,-3.176394653E-1,8.862919464E0,1.095512812E1
2.969028583E0,6.114634552E0,1.124162292E-1,8.622369690E0,1.057102891E1
2.979010583E0,6.256539459E0,4.586462402E-1,7.884703674E0,1.007587189E1
2.988992583E0,7.106172638E0,3.664379883E-1,7.444020081E0,1.029783479E1
2.998974583E0,7.794141998E0,2.170486450E-1,7.279362488E0,1.066699948E1
3.008956583E0,8.271499329E0,5.792953491E-2,7.160210266E0,1.094027733E1
3.018938583E0,8.409662018E0,-2.409988403E-2,7.105274506E0,1.100944694E1
3.028921583E0,8.410859528E0,-1.814227295E-1,7.206464081E0,1.107739124E1
3.038903583E0,8.165968781E0,5.837860107E-3,7.310497742E0,1.096022160E1
3.048885583E0,7.775879974E0,3.965254211E-1,6.953639832E0,1.043909233E1
3.058867583E0,7.584278412E0,4.972659302E-1,6.452032928E0,9.969818521E0
3.068849583E0,7.393724670E0,3.138972473E-1,6.317013702E0,9.729869377E0
3.078831583E0,7.274123383E0,8.337661743E-2,6.198909302E0,9.557525787E0
3.088813583E0,7.110812988E0,2.219883728E-1,5.688620453E0,9.108970460E0
3.098795583E0,7.079677734E0,2.866539001E-1,5.388195190E0,8.901497329E0
3.108777583E0,7.394323425E0,-1.154100037E-1,5.698350220E0,9.335980592E0
3.118759583E0,7.959248657E0,-4.544549561E-1,6.104306030E0,1.004085258E1
3.128741583E0,8.462502136E0,-3.498225403E-1,6.126459961E0,1.045322103E1
3.138723583E0,8.809330902E0,-4.251159668E-1,5.870941315E0,1.059495099E1
3.148705583E0,9.291478271E0,-1.257684631E0,6.164181519E0,1.122098360E1
3.158687583E0,9.378896484E0,-2.420915680E0,7.058871002E0,1.198549923E1
3.168670583E0,8.903036041E0,-2.882855072E0,7.965984650E0,1.228950022E1
3.178652583E0,7.768395538E0,-2.703378296E0,8.739426270E0,1.200140804E1
3.188634583E0,6.538852386E0,-2.054178314E0,8.184530182E0,1.067533481E1
3.198616583E0,5.485043793E0,-1.062939606E0,7.191195831E0,9.106527521E0
3.208598583E0,4.950056305E0,-4.700225830E-1,6.300248566E0,8.026027077E0
3.218580583E0,5.060825958E0,-5.719606018E-1,6.079457703E0,7.930882944E0
3.228562583E0,5.788013763E0,-6.420149231E-1,5.993686066E0,8.356886929E0
3.238544583E0,7.116650848E0,-8.894503784E-1,5.784421234E0,9.213976899E0
3.248526583E0,8.242908783E0,-9.602531433E-1,5.875282288E0,1.016791883E1
3.258508583E0,9.155860291E0,-8.026309204E-1,5.749244385E0,1.084102417E1
3.268490583E0,9.773925018E0,-7.114704895E-1,5.485193481E0,1.123045627E1
3.278472583E0,9.683812408E0,-2.251318359E-1,5.492677917E0,1.113536788E1
3.288454583E0,9.205556946E0,3.141966248E-1,5.585484924E0,1.077212328E1
3.298436583E0,8.552465057E0,6.732998657E-1,5.592969360E0,1.024105940E1
3.308419583E0,7.817493439E0,9.012757874E-1,5.423072662E0,9.556946103E0
3.318401583E0,7.382498016E0,8.719367981E-1,5.301824799E0,9.130766503E0
3.328383583E0,6.876550140E0,7.604187012E-1,5.399870911E0,8.776319518E0
3.338365583E0,6.323450317E0,6.352789307E-1,5.405559082E0,8.343241110E0
3.348347583E0,6.278693390E0,-2.903961182E-2,5.129233704E0,8.107519495E0
3.358329583E0,6.694528656E0,-5.575904846E-1,5.433999939E0,8.640368997E0
3.368311583E0,6.734794922E0,-7.595205688E-1,5.729635162E0,8.874855110E0
3.378293583E0,6.432723083E0,-8.412506104E-1,6.251300354E0,9.009238868E0
3.388275583E0,5.596262512E0,-2.803669739E-1,6.257437592E0,8.399540759E0
3.398257583E0,4.989723816E0,2.881507874E-1,5.776637421E0,7.638711575E0
3.408239583E0,5.076842651E0,6.538403320E-1,4.998854828E0,7.154745843E0
3.418221583E0,5.484145660E0,8.872050476E-1,4.471202087E0,7.131243547E0
3.428203583E0,5.952821045E0,8.996292114E-1,4.223616943E0,7.354206361E0
3.438185583E0,6.206244049E0,1.093326416E0,4.354145508E0,7.659726559E0
3.448168583E0,6.357579346E0,1.085991669E0,4.587210846E0,7.914587569E0
3.458150583E0,6.357279968E0,1.231339417E0,4.710554352E0,8.007529435E0
3.468132583E0,6.271059265E0,1.574276276E0,4.522994385E0,7.890627878E0
3.478114583E0,6.461613007E0,1.680405579E0,4.442012787E0,8.019207140E0
3.488096583E0,6.882088623E0,1.504371643E0,4.752018127E0,8.497526354E0
3.498078583E0,7.207511902E0,1.250948639E0,5.177433472E0,8.962082217E0
3.508060583E0,7.393125916E0,1.213227081E0,5.451812897E0,9.265662125E0
3.518042583E0,7.500003662E0,1.126557312E0,5.498964844E0,9.367913357E0
3.528024583E0,7.981552277E0,5.671705627E-1,5.901328125E0,9.942461105E0
3.538006583E0,8.377029877E0,4.552033997E-1,6.111640778E0,1.037949867E1
3.547988583E0,8.279732208E0,8.476872253E-1,5.611830139E0,1.003818592E1
3.557970583E0,8.102051697E0,1.158740387E0,5.342540131E0,9.773876203E0
3.567952583E0,7.866741028E0,9.966275024E-1,5.528004456E0,9.666318536E0
3.577934583E0,7.710016937E0,3.288661194E-1,6.440656586E0,1.005159546E1
3.587916583E0,7.569159851E0,-3.312611389E-1,7.560926971E0,1.070371578E1
3.597898583E0,7.380252686E0,-2.014810181E-1,7.521109772E0,1.053925123E1
3.607881583E0,7.787106628E0,1.041833496E-1,7.028334503E0,1.049034650E1
3.617863583E0,8.182883606E0,2.701881409E-1,6.696175232E0,1.057692528E1
3.627845583E0,8.708889771E0,6.616241455E-2,6.539900208E0,1.089125490E1
3.637827583E0,9.066047058E0,-1.947450256E-1,6.507417755E0,1.116143453E1
3.647809583E0,9.176816711E0,-2.743794250E-1,6.147566071E0,1.104906411E1
3.657791583E0,9.107510834E0,-3.818559265E-1,5.566025391E0,1.068050590E1
3.667773583E0,9.270372162E0,-8.165519714E-1,5.569767609E0,1.084568432E1
3.677755583E0,9.490115204E0,-1.285826111E0,5.625451813E0,1.110681518E1
3.687737583E0,9.760003967E0,-1.554068298E0,5.576653290E0,1.134776928E1
3.697719583E0,1.000190094E1,-1.912273407E0,5.625751190E0,1.163373923E1
3.707701583E0,9.936037903E0,-2.451152802E0,6.030060425E0,1.187832598E1
3.717683583E0,9.242979126E0,-2.753973083E0,6.466852112E0,1.161194243E1
3.727665583E0,8.212372284E0,-2.732268219E0,6.941664734E0,1.109482120E1
3.737647583E0,6.807543640E0,-2.517015839E0,7.069199524E0,1.013171264E1
3.747629583E0,5.685476990E0,-2.700833588E0,7.259902954E0,9.608607681E0
3.757611583E0,4.852010193E0,-3.024759979E0,7.358697510E0,9.318884315E0
3.767594583E0,4.470303955E0,-3.855233002E0,7.532785492E0,9.570229685E0
3.777576583E0,4.478387146E0,-4.784201202E0,8.057893524E0,1.038624959E1
3.787558583E0,4.614603882E0,-5.491480408E0,8.311316528E0,1.097856587E1
3.797540583E0,4.804708557E0,-5.975424042E0,8.065078583E0,1.112818086E1
3.807522583E0,5.101541290E0,-6.341263275E0,7.699838104E0,1.120378732E1
3.817504583E0,5.429209900E0,-6.775809631E0,7.419920197E0,1.142117034E1
3.827486583E0,5.463039551E0,-6.869514771E0,7.233258362E0,1.137343663E1
3.837468583E0,5.387596436E0,-6.819369049E0,6.804549866E0,1.103774834E1
3.847450583E0,5.517376556E0,-6.942413177E0,6.030210114E0,1.072389756E1
3.857432583E0,5.901477814E0,-7.043153687E0,5.359754333E0,1.063768869E1
3.867414583E0,6.423741760E0,-7.058122559E0,4.926704865E0,1.074029669E1
3.877396583E0,7.294031982E0,-7.333849182E0,4.353846130E0,1.122248736E1
3.887370708E0,8.315956879E0,-7.743996277E0,4.126918030E0,1.208950245E1
3.897352708E0,9.004225616E0,-7.840844879E0,3.842659149E0,1.254276511E1
3.907334708E0,9.862690430E0,-7.826624451E0,3.132086792E0,1.297453970E1
3.917316708E0,1.092368408E1,-6.817572784E0,1.973196716E0,1.302688289E1
3.927298708E0,1.183424057E1,-5.174439697E0,7.699987793E-1,1.293897114E1
3.937280708E0,1.274225235E1,-4.054319000E0,-8.680448914E-1,1.339985072E1
3.947263708E0,1.308863205E1,-3.256927185E0,-2.519859924E0,1.372113544E1
3.957245708E0,1.324086548E1,-1.557960205E0,-4.209845581E0,1.398107859E1
3.967227708E0,1.331047073E1,5.366340637E-1,-8.607550507E0,1.586021857E1
3.977209708E0,1.222537720E1,2.908152466E0,-1.320015015E1,1.822528909E1
3.987191708E0,1.128787674E1,3.377725983E0,-1.200668198E1,1.682217602E1
3.997173708E0,1.166883453E1,2.138602753E0,-4.844076691E0,1.281407040E1
4.007155708E0,1.162542480E1,2.347119141E-1,-8.005352783E-1,1.165531846E1
4.017137708E0,1.066337540E1,-1.333576813E0,1.377136230E-1,1.074732371E1
4.027119708E0,9.221423950E0,-4.739144897E-1,6.297404480E-1,9.255043363E0
4.037101708E0,7.597151642E0,4.222718811E-1,3.188369751E-2,7.608944945E0
4.047083708E0,6.673272858E0,8.032296753E-1,-8.669970703E-1,6.777125679E0
4.057065708E0,7.069648590E0,4.101470947E-2,-3.032693481E-1,7.076269193E0
4.067047708E0,7.830815735E0,-1.536405029E0,-3.258723450E-1,7.986764569E0
4.077029708E0,8.409063263E0,-3.173849945E0,-1.395697632E0,9.095803445E0
4.087011708E0,8.581055603E0,-5.428611145E0,-1.774410095E0,1.030790306E1
4.096993708E0,8.941805420E0,-3.452121277E0,-1.912872162E0,9.774052659E0
4.106975708E0,8.040829010E0,-3.060535583E0,8.472381592E-1,8.645208021E0
4.116957708E0,7.379354553E0,-3.610491943E0,1.917063446E0,8.435974037E0
4.126940708E0,6.697223053E0,-4.497247925E0,1.203497314E0,8.156374274E0
4.136922708E0,7.516469421E0,-4.557123413E0,1.301094360E0,8.885805135E0
4.146904708E0,8.067772980E0,-4.169130249E0,5.325924683E-1,9.096936991E0
4.156886708E0,8.793613586E0,-4.035907288E0,-1.287322998E-2,9.675554416E0
4.166868708E0,8.528814240E0,-3.970493317E0,-2.148033142E-1,9.410187563E0
4.176850708E0,8.584797821E0,-2.505789185E0,5.179229736E-2,8.943177037E0
4.186832708E0,9.100774841E0,-1.400487671E0,3.480262756E-1,9.214477235E0
4.196814708E0,9.192534027E0,-1.228046265E0,-1.426533508E-1,9.275296731E0
4.206796708E0,9.733658752E0,-1.431922302E0,2.089953918E0,1.005795315E1
4.216778708E0,1.047342041E1,-2.600242767E0,2.914289703E0,1.117796413E1
4.226760708E0,1.135553604E1,-3.650608521E0,3.766916656E0,1.250858915E1
4.236742708E0,1.143756546E1,-3.807781677E0,2.577340393E0,1.232719710E1
4.246724708E0,1.084539688E1,-3.368894348E0,7.298822021E-1,1.138001804E1
4.256706708E0,1.026265869E1,-2.398312683E0,-1.386117554E-1,1.054007971E1
4.266688708E0,1.017449203E1,-2.172432404E0,-8.250842285E-1,1.043649916E1
4.276670708E0,1.047117508E1,-3.277284851E0,-8.701405334E-1,1.100650935E1
4.286652708E0,1.069974976E1,-3.487298126E0,-8.033793640E-1,1.128234512E1
4.296634708E0,1.149070496E1,-3.788771210E0,-1.551074524E0,1.219823429E1
4.306617708E0,1.283790344E1,-4.130809937E0,-1.948647766E0,1.362617274E1
4.316599708E0,1.477981522E1,-4.914879456E0,-1.459015961E0,1.564377529E1
4.326581708E0,1.544622940E1,-5.209466858E0,-9.051676941E-1,1.632617151E1
4.336563708E0,1.464479599E1,-4.673281860E0,-5.388793945E-1,1.538180756E1
4.346545708E0,1.270123764E1,-4.285887451E0,-8.158035278E-2,1.340510814E1
4.356527708E0,1.074360855E1,-4.098028107E0,8.885522461E-1,1.153293042E1
4.366509708E0,9.773326263E0,-3.554807739E0,2.527494049E0,1.070246656E1
4.376491708E0,7.123835907E0,-4.724924469E0,2.528691559E0,8.914495514E0
4.386473708E0,5.540129242E0,-5.522765350E0,4.011657715E0,8.791323379E0
4.396455708E0,5.272785187E0,-5.543123016E0,4.630620575E0,8.942657508E0
4.406437708E0,5.093308411E0,-5.104684753E0,3.548221436E0,8.036757577E0
4.416419708E0,5.827531586E0,-5.468278656E0,1.423839111E0,8.117235592E0
4.426401708E0,6.804699554E0,-6.833888855E0,-3.308120728E-2,9.644017175E0
4.436383708E0,8.345744934E0,-7.839347992E0,-7.839198303E-1,1.147699289E1
4.446365708E0,1.032627640E1,-6.790179749E0,-1.905238037E0,1.250473739E1
4.456347708E0,9.498198395E0,-3.761078796E0,-2.575394440E0,1.053537579E1
4.466329708E0,8.999585266E0,-1.706601105E0,-1.873953094E0,9.349691037E0
4.476311708E0,8.824000397E0,-2.111658783E0,-3.502865753E0,9.725849798E0
4.486293708E0,9.531279602E0,-3.251089325E0,-4.953798523E0,1.122296719E1
4.496275708E0,1.032642609E1,-4.266577606E0,-4.885091400E0,1.219437896E1
4.506258708E0,1.054197784E1,-5.352868652E0,-4.794679413E0,1.275834826E1
4.516240708E0,1.057116714E1,-6.782994690E0,-4.697830811E0,1.341000396E1
4.526222708E0,1.015877472E1,-8.264164581E0,-4.885241089E0,1.397722077E1
4.536204708E0,8.967701569E0,-8.793763275E0,-5.071603546E0,1.354515066E1
4.546186708E0,7.948171692E0,-8.923842773E0,-4.883744202E0,1.290966152E1
4.556168708E0,6.965614929E0,-8.356672211E0,-3.854484558E0,1.154169888E1
4.566150708E0,5.864953766E0,-7.721393280E0,-1.939217377E0,9.888284022E0
4.576132708E0,4.677024078E0,-7.961493988E0,-6.212081909E-2,9.233839924E0
4.586114708E0,3.722309418E0,-8.482111359E0,5.673202515E-1,9.280283011E0
4.596096708E0,3.427123260E0,-8.238118744E0,-1.041833496E-1,8.923151262E0
4.606078708E0,3.396736450E0,-7.144642639E0,-7.421566772E-1,7.945724227E0
4.616060708E0,3.523223419E0,-5.390889587E0,-8.083190918E-1,6.490621970E0
4.626042708E0,3.732188873E0,-3.919449463E0,-1.377734985E0,5.584753492E0
4.636024708E0,4.265679474E0,-3.471281433E0,-2.214494934E0,5.928727011E0
4.646006708E0,4.843178558E0,-3.636986847E0,-2.201771393E0,6.444520862E0
4.655988708E0,5.433550873E0,-3.875740356E0,-1.487905884E0,6.838033512E0
4.665970708E0,5.990692291E0,-3.873495026E0,-6.917115784E-1,7.167344191E0
4.675952708E0,6.320007477E0,-3.650309143E0,-3.239263916E-1,7.305626575E0
4.685934708E0,6.111790466E0,-3.350931702E0,-2.137554932E-1,6.973407874E0
4.695917708E0,5.697003021E0,-3.268153839E0,-2.872526550E-1,6.574130135E0
4.705899708E0,5.408253479E0,-3.180735626E0,-3.987707520E-1,6.286915216E0
4.715881708E0,5.087919617E0,-3.091820526E0,-6.990463257E-1,5.994576378E0
4.725863708E0,4.321213989E0,-3.481460266E0,-9.571096802E-1,5.631120214E0
4.735845708E0,3.732787628E0,-3.732488251E0,-1.425785065E0,5.467909570E0
4.745827708E0,3.723506927E0,-4.157454529E0,-2.750230865E0,6.221953215E0
4.755809708E0,4.269272003E0,-4.827311554E0,-4.744833069E0,8.002690868E0
4.765791708E0,4.909041595E0,-5.532195740E0,-7.418572998E0,1.047564339E1
4.775773708E0,5.363496552E0,-6.569089508E0,-1.013796799E1,1.321735326E1
4.785755708E0,6.350543976E0,-7.365583191E0,-1.044288391E1,1.427007529E1
4.795737708E0,7.237449646E0,-8.004155273E0,-9.440568237E0,1.433776509E1
4.805719708E0,7.952812042E0,-8.532706146E0,-8.698112183E0,1.455030753E1
4.815701708E0,8.606802063E0,-9.250762939E0,-9.432035980E0,1.576759206E1
4.825683708E0,9.155860291E0,-1.008976822E1,-1.106798401E1,1.755373095E1
4.835665708E0,9.147777100E0,-1.082683548E1,-1.285646484E1,1.913611457E1
4.845647708E0,8.522377625E0,-1.126976440E1,-1.449361038E1,2.024112774E1
4.855629708E0,7.036866760E0,-1.127575195E1,-1.309581711E1,1.865905951E1
4.865611708E0,4.148473206E0,-1.031475037E1,3.064577179E0,1.153236916E1
4.875593708E0,4.740941162E0,-1.184831131E1,1.255843460E1,1.790456041E1
4.885575708E0,5.434598694E0,-1.877815063E1,3.781436462E0,1.991112920E1
4.895560750E0,6.927893372E0,-1.656754761E1,4.174219666E0,1.843647065E1
4.905543750E0,8.656648407E0,-1.128757736E1,3.546724548E0,1.466036218E1
4.915525750E0,8.043523407E0,-1.005054977E1,4.398303680E0,1.360356184E1
4.925507750E0,6.859635315E0,-1.210233307E1,4.582720184E0,1.464658276E1
4.935489750E0,5.818999329E0,-1.177152100E1,3.426075439E0,1.357083095E1
4.945471750E0,4.001329193E0,-8.919202423E0,1.534459076E0,9.895320704E0
4.955453750E0,2.106120300E0,-7.080875244E0,2.263293457E-1,7.390924294E0
4.965435750E0,8.156538391E-1,-6.312822418E0,4.628375244E-1,6.382102839E0
4.975417750E0,4.119433594E-1,-6.179300079E0,1.229094086E0,6.313803851E0
4.985399750E0,7.110214233E-2,-7.097640381E0,1.582359467E0,7.272235968E0
4.995381750E0,3.103047180E-1,-8.744365997E0,8.584648132E-1,8.791881912E0
5.005363750E0,1.049018555E0,-9.729916534E0,-5.962101746E-1,9.804447066E0
5.015345750E0,1.794468384E0,-9.849817200E0,-2.412832489E0,1.029858127E1
5.025327750E0,2.415826263E0,-9.775272217E0,-3.961212616E0,1.082050687E1
5.035309750E0,2.762355652E0,-9.859546967E0,-5.320685577E0,1.153910612E1
5.045291750E0,2.994373169E0,-9.961185608E0,-6.390959930E0,1.220802434E1
5.055273750E0,3.447331238E0,-9.733509064E0,-6.258784790E0,1.207467094E1
5.065255750E0,3.841461639E0,-9.256750488E0,-4.397555237E0,1.094453056E1
5.075237750E0,3.782484283E0,-9.084608459E0,-2.156864777E0,1.007419296E1
5.085219750E0,3.744912415E0,-9.146729279E0,1.707948303E-1,9.885150295E0
5.095202750E0,4.032314758E0,-9.076076202E0,1.459315338E0,1.003814339E1
5.105184750E0,4.430337067E0,-9.105265503E0,1.297950897E0,1.020874248E1
5.115166750E0,4.977000275E0,-8.855135651E0,7.762857056E-1,1.018756981E1
5.125148750E0,5.599855042E0,-8.167765045E0,1.133293304E0,9.967703649E0
5.135130750E0,5.714217224E0,-8.889414368E0,8.158035278E-1,1.059903305E1
5.145112750E0,5.208568726E0,-8.965306549E0,1.159039764E0,1.043308597E1
5.155094750E0,4.765041046E0,-8.337512054E0,1.377884674E0,9.701458117E0
5.165076750E0,4.721631317E0,-7.395071869E0,1.202449493E0,8.855889285E0
5.175058750E0,5.049898682E0,-6.377338257E0,5.608836365E-1,8.153926072E0
5.185040750E0,5.753884735E0,-5.605842590E0,-3.158432007E-2,8.033284401E0
5.195022750E0,6.735693054E0,-5.109774170E0,-1.094673615E0,8.525119548E0
5.205004750E0,7.951165466E0,-5.191803589E0,-2.056573334E0,9.716241591E0
5.214986750E0,8.725205841E0,-5.564229126E0,-2.345921631E0,1.061099482E1
5.224968750E0,8.221054230E0,-5.710175629E0,-1.898651733E0,1.018806737E1
5.234950750E0,7.405550079E0,-6.114185486E0,-1.000669098E0,9.655401327E0
5.244932750E0,6.915469208E0,-6.860533447E0,-9.834548950E-2,9.741678776E0
5.254914750E0,6.480773163E0,-7.355104980E0,4.700225830E-2,9.803070910E0
5.264896750E0,6.093528442E0,-7.437433777E0,-3.876937866E-1,9.622723966E0
5.274878750E0,5.921236725E0,-7.290738831E0,-8.403524780E-1,9.429852031E0
5.284860750E0,5.938750305E0,-7.064110107E0,-9.271719360E-1,9.275238789E0
5.294843750E0,5.822142792E0,-7.340585175E0,-1.992356873E-1,9.371298323E0
5.304825750E0,5.518723755E0,-8.169112244E0,4.391867065E-1,9.868312505E0
5.314807750E0,5.413791962E0,-8.872649231E0,-3.821553040E-1,1.040091777E1
5.324789750E0,5.253325653E0,-8.338709564E0,-2.368075562E-1,9.858376410E0
5.334771750E0,5.613626404E0,-7.690258026E0,3.671864319E-1,9.528257752E0
5.344753750E0,6.364914093E0,-8.093968506E0,4.947212219E-1,1.030869568E1
5.354735750E0,6.790030060E0,-8.765322418E0,5.200186157E-1,1.109981102E1
5.364717750E0,6.999893646E0,-9.096882935E0,2.086660767E-1,1.148021479E1
5.374699750E0,7.256759491E0,-9.180858307E0,9.729766846E-2,1.170291350E1
5.384681750E0,7.229366455E0,-9.038204956E0,-3.558100891E-1,1.157926980E1
5.394663750E0,6.990463257E0,-8.999734955E0,-6.463558960E-1,1.141400814E1
5.404645750E0,6.941365356E0,-9.274114380E0,-4.941224670E-1,1.159464995E1
5.414627750E0,7.194638672E0,-1.000714005E1,-3.603007507E-1,1.233026740E1
5.424609750E0,7.432044983E0,-1.073148376E1,-2.665956116E-1,1.305645854E1
5.434591750E0,7.579039307E0,-1.096574661E1,-2.594105530E-1,1.333254400E1
5.444573750E0,7.909102936E0,-1.135493729E1,-1.128652954E-1,1.383839762E1
5.454555750E0,8.031847687E0,-1.120854172E1,-7.738906860E-2,1.378941528E1
5.464537750E0,7.931705933E0,-1.017329453E1,6.914122009E-1,1.291843378E1
5.474519750E0,7.547754364E0,-9.065298615E0,1.278191986E0,1.186515949E1
5.484502750E0,7.054829407E0,-9.182205505E0,5.984555054E-1,1.159489823E1
5.494484750E0,6.272705841E0,-9.962532806E0,1.484912109E-1,1.177373977E1
5.504466750E0,5.003794556E0,-1.160087585E1,-2.318678284E-1,1.263614036E1
5.514448750E0,3.769760742E0,-1.339190140E1,-7.174580383E-1,1.393086017E1
5.524430750E0,2.958148499E0,-1.485031860E1,-1.416654053E0,1.520820548E1
5.534412750E0,2.436333618E0,-1.615665207E1,-1.827699280E0,1.644121687E1
5.544394750E0,1.933229828E0,-1.583392319E1,-1.163680115E0,1.599389422E1
5.554376750E0,1.514849854E0,-1.303145096E1,-2.308200073E-1,1.312123325E1
5.564358750E0,1.433718567E0,-1.170386169E1,-1.482517090E0,1.188418211E1
5.574340750E0,2.457439728E0,-1.047955765E1,-2.792293396E0,1.112011875E1
5.584322750E0,3.841162262E0,-8.753197632E0,-3.845952301E0,1.030360837E1
5.594304750E0,4.486021271E0,-8.210276642E0,-4.792733459E0,1.051205610E1
5.604286750E0,4.171674957E0,-9.209897919E0,-5.288053436E0,1.141002194E1
5.614268750E0,3.335663452E0,-1.087278992E1,-5.324427795E0,1.255761692E1
5.624250750E0,2.544408875E0,-1.223840012E1,-5.313650208E0,1.358261140E1
5.634232750E0,2.132315826E0,-1.148172363E1,-4.589605865E0,1.254755874E1
5.644214750E0,1.937720490E0,-1.026580215E1,-2.825673981E0,1.082247144E1
5.654196750E0,2.596051483E0,-8.388705597E0,-1.176403656E0,8.859672142E0
5.664178750E0,3.371588745E0,-6.226302338E0,6.533912659E-1,7.110651982E0
5.674161750E0,3.340902557E0,-6.565796356E0,1.345701599E-1,7.368135505E0
5.684143750E0,3.600462799E0,-6.566245422E0,-5.104385376E-1,7.505961552E0
5.694125750E0,3.585344238E0,-7.007827148E0,-1.505569153E0,8.014429058E0
5.704107750E0,3.666625214E0,-7.541317749E0,-3.156935120E0,8.960014129E0
5.714089750E0,4.124223633E0,-6.699318695E0,-3.209775238E0,8.496631605E0
5.724071750E0,4.707111511E0,-6.573430481E0,-4.362827454E0,9.187009876E0
5.734053750E0,4.916526031E0,-6.630461884E0,-4.917274475E0,9.608061265E0
5.744035750E0,4.709057465E0,-6.450835419E0,-4.608466644E0,9.220979591E0
5.754017750E0,4.513563995E0,-6.749913483E0,-4.164938965E0,9.125804542E0
5.763999750E0,4.891977081E0,-5.379363556E0,-1.742825775E0,7.477060499E0
5.773981750E0,4.346511383E0,-5.040917358E0,-1.916165314E0,6.926377013E0
5.783963750E0,3.378025360E0,-5.474415894E0,-3.359164581E0,7.257015323E0
5.793945750E0,2.982697449E0,-5.474864960E0,-3.832031250E0,7.318134591E0
5.803927750E0,3.344345398E0,-4.703668671E0,-3.504512329E0,6.752092399E0
5.813909750E0,3.592080231E0,-3.527265015E0,-2.606679382E0,5.669163631E0
5.823891750E0,3.519780579E0,-2.864892426E0,-3.224594421E0,5.567268012E0
5.833873750E0,3.613485718E0,-2.499951324E0,-4.295766907E0,6.144969404E0
5.843855750E0,4.382885742E0,-2.383792877E0,-4.695585480E0,6.851326799E0
5.853837750E0,4.570445709E0,-2.033970337E0,-3.108136597E0,5.889526502E0
5.863820750E0,3.934717712E0,-1.752854919E0,-2.344125366E0,4.904021572E0
5.873802750E0,3.658392334E0,-1.761387177E0,-2.748434601E0,4.903081889E0
5.883784750E0,3.701652374E0,-1.619332581E0,-2.646646271E0,4.830031552E0
5.893762583E0,3.994892578E0,-1.671274567E0,-3.323388977E0,5.458684794E0
5.903744583E0,5.355113983E0,-2.528691559E0,-3.840713196E0,7.058512919E0
5.913726583E0,8.702453156E0,-4.627477112E0,-3.071762238E0,1.032385386E1
5.923708583E0,1.020727386E1,-7.094496918E0,-1.106049957E0,1.247973048E1
5.933690583E0,1.159428955E1,-8.165669403E0,-8.165519714E-1,1.420466346E1
5.943672583E0,1.239647141E1,-8.652606812E0,-1.877096558E0,1.523363382E1
5.953654583E0,1.325448715E1,-8.367599487E0,-2.453547821E0,1.586562472E1
5.963636583E0,1.413420776E1,-7.876770172E0,-3.640878754E0,1.658539525E1
5.973618583E0,1.521960068E1,-8.052355042E0,-2.975063324E0,1.747362779E1
5.983600583E0,1.629346756E1,-8.943751373E0,-3.286415863E0,1.887507094E1
5.993582583E0,1.659688660E1,-9.660311279E0,-4.370910645E0,1.969474850E1
6.003564583E0,1.545221695E1,-9.815239105E0,-4.151167603E0,1.877077835E1
6.013546583E0,1.301004547E1,-1.074899734E1,-3.426374817E0,1.722040277E1
6.023528583E0,1.034513718E1,-1.194261520E1,-7.932005310E-1,1.582014817E1
6.033510583E0,8.989256744E0,-1.234078720E1,1.189426575E0,1.531393160E1
6.043492583E0,7.930508423E0,-1.197599579E1,1.600172424E-1,1.436464564E1
6.053474583E0,6.714586945E0,-1.069585785E1,4.071533203E-1,1.263537996E1
6.063456583E0,6.184688873E0,-9.178163910E0,-2.336640930E-1,1.106994436E1
6.073438583E0,5.168601837E0,-8.275091858E0,1.768422546E0,9.915589166E0
6.083421583E0,5.251679077E0,-7.405999146E0,2.682721252E0,9.467098277E0
6.093403583E0,4.676874390E0,-6.378835144E0,3.235521698E0,8.545834805E0
6.103385583E0,4.355193329E0,-4.788991241E0,3.496129761E0,7.356974198E0
6.113367583E0,3.805087280E0,-4.669539642E0,2.856958923E0,6.666746131E0
6.123349583E0,3.338208160E0,-5.804329834E0,2.490520935E0,7.143988597E0
6.133331583E0,3.333118744E0,-7.493117981E0,2.780917053E0,8.659676512E0
6.143313583E0,3.493285675E0,-9.556427307E0,2.627635803E0,1.050870199E1
6.153295583E0,3.764072571E0,-1.048719177E1,2.152673492E0,1.134827902E1
6.163277583E0,3.589086456E0,-9.945468292E0,1.459764404E0,1.067355579E1
6.173259583E0,3.378175049E0,-8.219557343E0,9.385482788E-2,8.887181685E0
6.183241583E0,4.020639038E0,-6.128106537E0,-1.101858673E0,7.411701595E0
6.193223583E0,5.148244171E0,-4.440815277E0,-2.209854584E0,7.149035995E0
6.203205583E0,6.221063232E0,-3.479514313E0,-3.186124420E0,7.807690850E0
6.213187583E0,7.462132416E0,-3.213068390E0,-3.093766479E0,8.693596477E0
6.223169583E0,8.416098633E0,-3.560196533E0,-2.340981903E0,9.433234431E0
6.233151583E0,8.762178955E0,-3.789669342E0,-1.770518188E0,9.709382494E0
6.243133583E0,8.781189423E0,-3.784280548E0,-1.576521606E0,9.691000326E0
6.253115583E0,8.731043701E0,-3.928580475E0,-1.725761261E0,9.728469591E0
6.263097583E0,8.752449188E0,-4.166286163E0,-1.010698242E0,9.746015500E0
6.273079583E0,8.587941284E0,-4.840633850E0,-1.201551361E0,9.931173004E0
6.283062583E0,8.568032684E0,-5.464686127E0,-7.649093628E-1,1.019112677E1
6.293044583E0,8.677904205E0,-6.047124939E0,-2.254312134E-1,1.057944047E1
6.303026583E0,8.290060730E0,-6.018085327E0,5.935157776E-1,1.026132150E1
6.313008583E0,7.805218964E0,-5.376070404E0,1.324445801E0,9.569625528E0
6.322990583E0,6.996600494E0,-4.842280426E0,1.033001862E0,8.571300429E0
6.332972583E0,6.225553894E0,-3.811374207E0,1.033301239E0,7.372367739E0
6.342954583E0,5.661227417E0,-3.006797333E0,1.026714935E0,6.491877204E0
6.352936583E0,5.382956085E0,-2.635718994E0,7.023394775E-1,6.034609480E0
6.362918583E0,5.280569000E0,-2.818488922E0,-7.717950439E-1,6.035226289E0
6.372900583E0,4.607867889E0,-6.068081360E0,-6.015989685E0,9.708047680E0
6.382882583E0,5.820346527E0,-7.562723236E0,-3.701053619E0,1.023567361E1
6.392864583E0,6.968159637E0,-7.027286682E0,-2.504292297E-1,9.899531385E0
6.402846583E0,6.928192749E0,-6.839427338E0,-5.167254639E-1,9.749083356E0
6.412828583E0,7.212601318E0,-6.908733215E0,-1.552272034E-1,9.988809133E0
6.422810583E0,7.394922180E0,-8.113278351E0,2.291734314E-1,1.098010383E1
6.432792583E0,7.531438293E0,-8.452922058E0,-3.376977539E-1,1.132645107E1
6.442774583E0,7.568710785E0,-7.086413727E0,-4.315525818E-1,1.037732529E1
6.452756583E0,7.897427216E0,-5.848488007E0,-5.984555054E-1,9.845421148E0
6.462738583E0,8.150550842E0,-5.709427185E0,-8.101153564E-1,9.984253838E0
6.472720583E0,8.336015167E0,-6.090384979E0,-3.790118408E-1,1.033080771E1
6.482702583E0,8.223449249E0,-6.822512512E0,-1.745370483E-1,1.068654564E1
6.492684583E0,8.214617615E0,-7.390730896E0,-3.574566650E-1,1.105579581E1
6.502666583E0,8.380023651E0,-7.859106903E0,-2.701881409E-1,1.149188232E1
6.512649583E0,8.707392883E0,-7.683072968E0,-2.902464294E-1,1.161604683E1
6.522631583E0,9.114995270E0,-7.583979034E0,-3.814068604E-1,1.186361446E1
6.532613583E0,9.442065125E0,-7.995323639E0,-3.362008667E-1,1.237702811E1
6.542595583E0,9.960137787E0,-8.541837158E0,7.634124756E-2,1.312147685E1
6.552577583E0,1.034094589E1,-9.385782166E0,-9.234297180E-1,1.399574190E1
6.562559583E0,1.062370789E1,-1.030352371E1,-2.442171478E0,1.499966572E1
6.572541583E0,1.068837341E1,-1.067654800E1,-3.078498230E0,1.541775453E1
6.582523583E0,1.062071411E1,-1.093266541E1,-1.971400452E0,1.536909759E1
6.592505583E0,1.070828201E1,-1.118968094E1,-2.993774414E-1,1.549083245E1
6.602487583E0,1.030921188E1,-1.116094070E1,3.439846802E-1,1.519752521E1
6.612469583E0,9.604327698E0,-1.078986237E1,4.547543335E-1,1.445237150E1
6.622451583E0,8.326884155E0,-1.009366013E1,-2.360591125E-1,1.308719597E1
6.632433583E0,6.693929901E0,-9.271569672E0,-2.054477692E0,1.161858771E1
6.642415583E0,5.408552856E0,-8.635242920E0,-3.523522797E0,1.078123728E1
6.652397583E0,5.079836426E0,-8.213420105E0,-4.164040833E0,1.051685523E1
6.662379583E0,5.437742157E0,-7.378456421E0,-3.851041718E0,9.941890224E0
6.672361583E0,5.992189178E0,-7.346123657E0,-2.912044373E0,9.917250948E0
6.682343583E0,6.699019318E0,-8.398135986E0,-2.395468597E0,1.100653523E1
6.692325583E0,6.951244812E0,-9.147328033E0,-2.737357635E0,1.181044205E1
6.702307583E0,6.645281067E0,-9.724827118E0,-3.679348755E0,1.233975811E1
6.712289583E0,6.194119263E0,-9.853110352E0,-4.113745422E0,1.234397823E1
6.722271583E0,5.813011780E0,-9.719138947E0,-4.672533417E0,1.225093206E1
6.732253583E0,5.725144501E0,-9.357191620E0,-4.817881165E0,1.198108065E1
6.742235583E0,5.576802979E0,-8.319998474E0,-3.879332886E0,1.074115123E1
6.752217583E0,5.234764252E0,-7.356302490E0,-3.068918152E0,9.536047489E0
6.762200583E0,4.445605316E0,-6.774462433E0,-2.500101013E0,8.479814441E0
6.772182583E0,3.736529846E0,-6.434818726E0,-1.957030334E0,7.694057126E0
6.782164583E0,3.244353333E0,-6.461313629E0,-1.284778290E0,7.343368274E0
6.792146583E0,2.949316864E0,-6.691385193E0,-8.099656677E-1,7.357251535E0
6.802128583E0,2.736309814E0,-6.674769745E0,-6.140231323E-1,7.239956281E0
6.812110583E0,2.731519775E0,-6.455775146E0,-4.263134766E-1,7.022818252E0
6.822092583E0,2.869682465E0,-5.824837189E0,-5.254074097E-1,6.514588143E0
6.832074583E0,2.984942780E0,-4.978197784E0,-1.350341949E0,5.959510043E0
6.842056583E0,3.234922943E0,-4.549938354E0,-2.366728363E0,6.063667918E0
6.852038583E0,3.613036652E0,-4.386328583E0,-3.446433105E0,6.646187887E0
6.862020583E0,4.029919739E0,-4.364474030E0,-4.180656281E0,7.264074173E0
6.872002583E0,4.462969208E0,-4.374652863E0,-4.506079559E0,7.704572332E0
6.881984583E0,4.742438049E0,-4.505181427E0,-4.534520416E0,7.959224444E0
6.891966000E0,4.922513580E0,-4.783153381E0,-4.287983093E0,8.092990500E0
6.901948000E0,5.218298492E0,-4.937183075E0,-3.841162262E0,8.146222646E0
6.911930000E0,5.319188690E0,-4.927752686E0,-3.263812866E0,7.951665818E0
6.921912000E0,5.120252380E0,-4.955594788E0,-2.823877716E0,7.664801987E0
6.931894000E0,4.681814117E0,-4.652026062E0,-2.913092194E0,7.214349315E0
6.941876000E0,4.296665039E0,-4.091292114E0,-3.184926910E0,6.733777621E0
6.951858000E0,4.092040558E0,-3.727099457E0,-3.418591003E0,6.505599952E0
6.961840000E0,4.119882660E0,-3.533102875E0,-3.761378174E0,6.603348758E0
6.971822000E0,4.284689941E0,-3.065475311E0,-4.223167877E0,6.752099947E0
6.981804000E0,4.501289520E0,-2.338886261E0,-4.541106720E0,6.808351234E0
6.991786000E0,4.672533417E0,-2.054328003E0,-4.627626801E0,6.889685180E0
7.001768000E0,4.656067657E0,-2.281106415E0,-5.882916412E0,7.841627256E0
7.011750000E0,4.570894775E0,-2.821482697E0,-6.814728699E0,8.677232905E0
7.021732000E0,5.310057678E0,-3.586242371E0,-7.827971649E0,1.011607567E1
7.031714000E0,6.880591736E0,-4.681963806E0,-8.775800629E0,1.209454441E1
7.041696000E0,8.670270081E0,-6.394103394E0,-8.602610779E0,1.378633576E1
7.051679000E0,1.024709106E1,-8.504265289E0,-8.000562744E0,1.553494151E1
7.061661000E0,1.120090759E1,-8.568182373E0,-7.516768799E0,1.598048476E1
7.071643000E0,1.162362854E1,-8.004005585E0,-7.346273346E0,1.591039214E1
7.081625000E0,1.186058578E1,-8.499325562E0,-7.250472565E0,1.629359944E1
7.091607000E0,1.259465927E1,-1.004067032E1,-7.043303375E0,1.757977887E1
7.101589000E0,1.276859756E1,-1.206865311E1,-9.364975433E0,1.990960161E1
7.111571000E0,1.188872726E1,-1.438239166E1,-1.106109833E1,2.169200134E1
7.121553000E0,1.066098038E1,-1.606130035E1,-9.250164185E0,2.138194119E1
7.131535000E0,9.236542511E0,-1.513472717E1,-4.740791473E0,1.835344077E1
7.141517000E0,7.935747528E0,-1.363050522E1,-6.218069458E-1,1.578459392E1
7.151499000E0,6.441854095E0,-1.298849030E1,1.883982239E0,1.462011469E1
7.161481000E0,4.929399261E0,-1.269749542E1,3.233875122E0,1.399940411E1
7.171463000E0,3.913461914E0,-1.189516388E1,3.723357239E0,1.306420671E1
7.181445000E0,3.122806091E0,-1.062340851E1,4.179758148E0,1.183550186E1
7.191427000E0,2.643502808E0,-9.507030029E0,4.944817200E0,1.103734317E1
7.201409000E0,2.584824829E0,-7.934699707E0,4.638105011E0,9.547397390E0
7.211391000E0,2.288740540E0,-5.454507294E0,4.777764587E0,7.603750228E0
7.221373000E0,2.166893921E0,-2.730471954E0,6.116281128E0,7.039872243E0
7.231355000E0,1.850751343E0,-2.907104645E0,7.181166687E0,7.965280468E0
7.241337000E0,3.062631226E-1,-4.896767120E0,7.343878326E0,8.832025487E0
7.251319000E0,-3.957769775E-1,-7.577243042E0,8.106991425E0,1.110380842E1
7.261301000E0,-1.031205597E0,-8.633746033E0,8.035589905E0,1.183958026E1
7.271283000E0,-1.316811676E0,-8.910370789E0,7.294630737E0,1.159052795E1
7.281265000E0,-1.712438965E0,-8.914412384E0,6.274053040E0,1.103462446E1
7.291247000E0,-1.671424255E0,-8.165370026E0,5.425916748E0,9.945224947E0
7.301229000E0,-1.220861206E0,-6.542594604E0,4.356839905E0,7.954753309E0
7.311211000E0,-7.256909180E-1,-5.207371216E0,2.788700867E0,5.951486773E0
7.321193000E0,-1.510359192E-1,-5.369783478E0,-1.758842468E-1,5.374785737E0
7.331175000E0,1.874851227E0,-5.796546021E0,-1.083357147E1,1.242904999E1
7.341157000E0,3.976630554E0,-4.691843262E0,-1.510913040E1,1.631296433E1
7.351139000E0,3.916605377E0,-5.058281250E0,-1.125030487E1,1.294200010E1
7.361121000E0,3.889362030E0,-8.677904205E0,-6.984475708E0,1.179898552E1
7.371103000E0,4.631219330E0,-1.247371078E1,-4.032314758E0,1.390328075E1
7.381085000E0,5.984704742E0,-1.378827713E1,-1.772314453E0,1.513520319E1
7.391067000E0,6.968159637E0,-1.336316116E1,-1.159488831E0,1.511534781E1
7.401049000E0,6.949298859E0,-1.354623047E1,-5.858816528E-1,1.523602218E1
7.411031000E0,6.741979980E0,-1.293026138E1,1.478475494E0,1.465714308E1
7.421013000E0,6.333629150E0,-1.137424713E1,4.252207489E0,1.369560603E1
7.430996000E0,5.320984955E0,-1.109792175E1,4.940476227E0,1.326216624E1
7.440977000E0,4.164639587E0,-1.181642761E1,4.941374359E0,1.346808691E1
7.450959000E0,3.532204742E0,-1.102322708E1,4.884043579E0,1.256351413E1
7.460942000E0,3.931274872E0,-9.445807343E0,4.646637268E0,1.123696740E1
7.470924000E0,5.067711639E0,-7.683671722E0,3.513343964E0,9.852111358E0
7.480906000E0,6.049370270E0,-6.770420837E0,2.126477966E0,9.324987266E0
7.490888000E0,6.788982239E0,-6.819369049E0,8.125103760E-1,9.656823866E0
7.500870000E0,7.325017548E0,-6.631509705E0,3.938310242E-1,9.888776765E0
7.510852000E0,7.692653046E0,-6.686744843E0,-4.558021545E-1,1.020280467E1
7.520834000E0,7.827522583E0,-7.592810669E0,-1.229692841E0,1.097419829E1
7.530816000E0,7.770640869E0,-7.699688416E0,-1.101259918E0,1.099458206E1
7.540798000E0,7.333849182E0,-6.628964996E0,-4.897814941E-1,9.897899103E0
7.550780000E0,6.556964722E0,-6.300847321E0,-2.016307068E-1,9.095884688E0
7.560762000E0,5.971382446E0,-6.367907867E0,3.118016052E-1,8.735266405E0
7.570744000E0,5.491330719E0,-6.162235565E0,1.521136780E0,8.392956412E0
7.580726000E0,5.123246155E0,-6.301595764E0,1.722917175E0,8.302180673E0
7.590708000E0,4.734504547E0,-6.680008850E0,1.611099701E0,8.344680569E0
7.600690000E0,4.215683441E0,-7.163653107E0,2.070943451E0,8.566137956E0
7.610672000E0,3.822600861E0,-8.158783722E0,2.661615143E0,9.394797727E0
7.620654000E0,3.641178131E0,-9.147926788E0,1.970352631E0,1.004116687E1
7.630636000E0,3.769012299E0,-9.575138397E0,7.029382324E-1,1.031420628E1
7.640618000E0,4.504432983E0,-9.060059509E0,1.399589539E-1,1.011900110E1
7.650600000E0,5.582491150E0,-7.700287170E0,6.436614990E-2,9.511191983E0
7.660582000E0,6.343807983E0,-6.101461945E0,1.923500061E-1,8.803904595E0
7.670564000E0,6.676566010E0,-5.451363831E0,1.272354126E-1,8.620330048E0
7.680546000E0,7.170389099E0,-6.285130005E0,5.912704468E-1,9.553373213E0
7.690528000E0,7.902816010E0,-7.721093903E0,1.062041473E0,1.109944701E1
7.700510000E0,8.717871094E0,-9.667945404E0,1.177451477E0,1.307122170E1
7.710492000E0,9.318122864E0,-1.205697739E1,1.249002686E0,1.528915057E1
7.720474000E0,9.507030029E0,-1.445364349E1,1.187031555E-1,1.730044857E1
7.730456000E0,1.012464569E1,-2.011097900E1,-1.473071732E1,2.690639254E1
7.740438000E0,8.389454041E0,-2.197086136E1,-8.980574799E0,2.517443965E1
7.750420000E0,6.515950012E0,-2.011981064E1,3.110232239E0,2.137610650E1
7.760402000E0,5.452261963E0,-1.976624588E1,6.386918335E0,2.147613472E1
7.770384000E0,4.070335693E0,-1.933439392E1,6.030359802E0,2.065796845E1
7.780366000E0,2.569406891E0,-1.864852020E1,3.982318726E0,1.924131025E1
7.790348000E0,1.449735260E0,-1.781265839E1,2.568209381E0,1.805514416E1
7.800330000E0,-8.232879639E-3,-1.743005402E1,-1.202000427E0,1.747145260E1
7.810312000E0,-1.033450928E0,-1.662293243E1,-2.360441437E0,1.682146210E1
7.820294000E0,7.723937988E-2,-1.375324997E1,1.106349335E0,1.379789330E1
7.830276000E0,5.313949585E-2,-1.204425385E1,2.331850891E0,1.226802360E1
7.840258000E0,-8.638536072E-1,-1.192091034E1,1.522633667E0,1.204876590E1
7.850240000E0,-1.747316437E0,-1.119402191E1,3.058290253E0,1.173509184E1
7.860222000E0,-1.952839050E0,-9.520352325E0,4.014352112E0,1.051502314E1
7.870204000E0,-1.124461670E0,-7.543712769E0,3.369642792E0,8.338255748E0
7.880186000E0,-4.336482239E-1,-6.681655426E0,2.324965210E0,7.087879319E0
7.890168000E0,-3.504212952E-1,-7.446714478E0,8.738827515E-1,7.505999111E0
7.900154750E0,-3.908372498E-1,-8.568332062E0,-3.580554199E-1,8.584711513E0
7.910136750E0,-5.908213806E-1,-9.363777924E0,-1.210233307E0,9.460130631E0
7.920118750E0,-8.497828674E-1,-9.511371002E0,-1.662592621E0,9.692910991E0
7.930100750E0,-1.081800385E0,-9.045390015E0,-1.702709198E0,9.267609789E0
7.940082750E0,-1.396146698E0,-8.299191742E0,-1.470991058E0,8.543396506E0
7.950064750E0,-1.737436981E0,-7.636070709E0,-1.134490814E0,7.912985059E0
7.960046750E0,-1.960922241E0,-7.069199524E0,-8.473878479E-1,7.384907861E0
7.970028750E0,-1.971699829E0,-6.435267792E0,-8.297245789E-1,6.781497965E0
7.980010750E0,-1.894011383E0,-5.664370880E0,-9.139993286E-1,6.042166115E0
7.989992750E0,-1.710343323E0,-5.065466309E0,-6.236032104E-1,5.382667013E0
7.999974750E0,-1.494492188E0,-4.645589447E0,-2.056723022E-1,4.884394467E0
8.009956750E0,-1.491348724E0,-4.596192169E0,1.266366577E-1,4.833750130E0
8.019938750E0,-1.651964722E0,-4.694088593E0,2.188449097E-1,4.981099101E0
8.029920750E0,-1.813329163E0,-4.891078949E0,7.993377686E-2,5.217011151E0
8.039902750E0,-1.843865662E0,-4.938829651E0,-2.499801636E-2,5.271859615E0
8.049884750E0,-1.733096008E0,-4.704267426E0,4.730163574E-2,5.013580679E0
8.059866750E0,-1.528621216E0,-4.262835388E0,1.317260742E-2,4.528644597E0
8.069848750E0,-1.345252533E0,-3.718567200E0,-4.650828552E-1,3.981676589E0
8.079830750E0,-1.123862915E0,-3.190016327E0,-1.016236725E0,3.531573176E0
8.089812750E0,-9.533674622E-1,-2.688559113E0,-1.626218262E0,3.283572057E0
8.099794750E0,-8.711883545E-1,-2.426005096E0,-2.475402374E0,3.573805645E0
8.109776750E0,-8.237370300E-1,-2.465522919E0,-3.507955170E0,4.366130487E0
8.119758750E0,-4.851411438E-1,-3.373834076E0,-4.245621185E0,5.444576894E0
8.129740750E0,5.697152710E-1,-5.199288025E0,-5.178930359E0,7.360603991E0
8.139722750E0,2.159858551E0,-8.488847351E0,-6.953939209E0,1.118404170E1
8.149704750E0,5.786217499E0,-1.413480652E1,-9.346114655E0,1.790594670E1
8.159686750E0,1.140164017E1,-2.064731369E1,-1.390982437E1,2.738233327E1
8.169668750E0,1.391536285E1,-2.428130676E1,-1.684432205E1,3.266420620E1
8.179650750E0,1.368648880E1,-2.545037567E1,-1.422506882E1,3.220860414E1
8.189632750E0,1.298070648E1,-2.366384079E1,-1.047147446E1,2.895043832E1
8.199614750E0,1.151450546E1,-1.973002121E1,-6.302044830E0,2.369753873E1
8.209596750E0,9.918823700E0,-1.676274170E1,-3.410507812E0,1.977382453E1
8.219578750E0,7.980953522E0,-1.594125000E1,-1.979783020E0,1.793707366E1
8.229560750E0,5.216951294E0,-1.586086716E1,-3.174897766E-1,1.669983496E1
8.239542750E0,2.534379730E0,-1.592613144E1,1.201850739E0,1.617124573E1
8.249524750E0,5.969586182E-1,-1.572554855E1,9.618997192E-1,1.576624521E1
8.259506750E0,-1.050216064E0,-1.392209885E1,-2.131417694E0,1.412341076E1
8.269488750E0,-1.845362549E0,-1.186986649E1,-7.948471069E-2,1.201271872E1
8.279470750E0,-1.514700165E0,-1.123324036E1,4.428690491E0,1.216935927E1
8.289452750E0,-1.297801208E0,-8.383316803E0,4.631219330E0,9.665013248E0
8.299434750E0,-1.153201904E0,-5.018164673E0,3.733386383E0,6.360033428E0
8.309416750E0,-1.098565521E0,-2.656675415E0,3.727398834E0,4.707257432E0
8.319398750E0,-1.132245483E0,-1.084045715E0,4.249213715E0,4.529122668E0
8.329380750E0,-1.475930786E0,-7.933502197E-2,4.736899567E0,4.962145024E0
8.339362750E0,-2.265688477E0,8.373587036E-1,6.078858948E0,6.541180320E0
8.349344750E0,-2.968327332E0,7.135661316E-1,8.146509247E0,8.699756128E0
8.359326750E0,-2.539020081E0,-2.784509583E0,7.910599823E0,8.762288864E0
8.369308750E0,-1.708996124E0,-6.736591187E0,5.541775818E0,8.888959882E0
8.379290750E0,-1.325643311E0,-9.739047546E0,3.186423798E0,1.033245730E1
8.389272750E0,-9.653425598E-1,-1.240036331E1,1.834135895E0,1.257238844E1
8.399254750E0,-7.960446167E-1,-1.440020462E1,1.010698242E0,1.445756173E1
8.409236750E0,-8.449928284E-1,-1.533156784E1,1.031504974E0,1.538944404E1
8.419218750E0,-4.653822327E-1,-1.458731552E1,1.867366791E0,1.471371515E1
8.429200750E0,1.856140137E-2,-1.227058319E1,2.029779053E0,1.243734535E1
8.439182750E0,6.400689697E-1,-1.024304947E1,1.268761597E0,1.034115597E1
8.449164750E0,1.337768097E0,-8.801098022E0,-3.888912964E-1,8.910678219E0
8.459146750E0,2.764600983E0,-8.148455200E0,-1.954785004E0,8.823917789E0
8.469128750E0,4.040098572E0,-8.120014343E0,-4.623884583E-1,9.081345302E0
8.479110750E0,5.898484039E0,-7.030579834E0,2.546504517E0,9.523961992E0
8.489092750E0,5.476960602E0,-8.853489075E0,4.204456787E0,1.122759204E1
8.499074750E0,4.517904968E0,-1.087054459E1,4.493954773E0,1.260062833E1
8.509056750E0,4.693190460E0,-1.073357941E1,4.615502014E0,1.259121211E1
8.519038750E0,3.979624329E0,-1.055410263E1,3.425476685E0,1.178814585E1
8.529020750E0,3.194656677E0,-1.039408539E1,1.901046753E-2,1.087396909E1
8.539002750E0,4.750820618E0,-9.640402679E0,-1.271830215E1,1.665121227E1
8.548984750E0,4.841232605E0,-8.172555084E0,-9.093440094E0,1.314986093E1
8.558966750E0,3.414100342E0,-8.587043152E0,9.439370728E-1,9.288940114E0
8.568948750E0,3.184178467E0,-8.440647583E0,2.830314331E0,9.454850784E0
8.578930750E0,2.198478241E0,-8.951684875E0,1.572480011E0,9.350864242E0
8.588912750E0,1.458417206E0,-8.643924866E0,1.421893158E0,8.880664276E0
8.598894750E0,6.604266357E-1,-8.450227661E0,1.375489655E0,8.586878516E0
8.608876750E0,8.372090149E-1,-7.732919312E0,8.734336853E-1,7.826994724E0
8.618858750E0,1.498533783E0,-7.908055115E0,6.331832886E-1,8.073652226E0
8.628840750E0,1.248254242E0,-9.170529785E0,-6.450086975E-1,9.277542315E0
8.638822750E0,9.171427917E-1,-1.064661026E1,-1.308878174E0,1.076590094E1
8.648804750E0,7.289840698E-1,-1.117456238E1,1.050814819E-1,1.119880816E1
8.658786750E0,6.053411865E-1,-1.100975510E1,1.732796631E0,1.116170818E1
8.668768750E0,5.818400574E-1,-1.047850983E1,3.105891266E0,1.094459988E1
8.678750750E0,8.508306885E-1,-9.650431824E0,3.735631714E0,1.038314459E1
8.688732750E0,1.314266968E0,-9.076375580E0,3.568579102E0,9.840866229E0
8.698714750E0,1.862726440E0,-9.168583832E0,3.281027069E0,9.914525601E0
8.708696750E0,2.477947083E0,-9.424551544E0,3.086282043E0,1.022191422E1
8.718678750E0,2.905158691E0,-9.631571045E0,2.703378296E0,1.041707070E1
8.728660750E0,3.267405396E0,-9.912237396E0,2.190095673E0,1.066418807E1
8.738642750E0,3.782184906E0,-1.027298721E1,1.428180084E0,1.103987714E1
8.748624750E0,4.239334259E0,-1.072025711E1,1.191971283E0,1.158950659E1
8.758606750E0,4.512216797E0,-1.120135666E1,2.069147186E0,1.225201459E1
8.768588750E0,4.825515289E0,-1.187465652E1,2.803220673E0,1.312063686E1
8.778570750E0,5.379662933E0,-1.291184967E1,2.443368988E0,1.419953123E1
8.788552750E0,6.453679504E0,-1.416758835E1,-7.083270264E-1,1.558435966E1
8.798534750E0,9.621841278E0,-1.724414062E1,-1.762988846E1,2.647174310E1
8.808516750E0,8.611592102E0,-1.698083817E1,-8.976982269E0,2.104981221E1
8.818498750E0,5.444777527E0,-1.389171204E1,5.120102692E0,1.577468596E1
8.828479750E0,4.406686249E0,-1.275063492E1,6.462810516E0,1.495879321E1
8.838461750E0,3.070115662E0,-1.316647018E1,1.575473785E0,1.361115957E1
8.848443750E0,1.798659668E0,-1.432625839E1,-1.484912109E0,1.451488271E1
8.858425750E0,1.484762421E0,-1.349398911E1,-1.871707764E0,1.370385170E1
8.868407750E0,1.718725891E0,-1.513906815E1,3.891906738E-2,1.523636826E1
8.878389750E0,1.826202393E0,-1.705403595E1,2.831362152E0,1.738366385E1
8.888371750E0,1.556762695E0,-1.717049377E1,3.597469025E0,1.761224432E1
8.898353458E0,7.622149658E-1,-1.730596207E1,3.528612213E0,1.767847275E1
8.908335458E0,-1.607656860E-1,-1.747945129E1,2.469714203E0,1.765379708E1
8.918317458E0,-8.411009216E-1,-1.641247009E1,1.127006378E0,1.647260661E1
8.928299458E0,-1.381327515E0,-1.484253479E1,-6.316864014E-2,1.490680700E1
8.938281458E0,-1.279838562E0,-1.221385117E1,-5.553451538E-1,1.229327277E1
8.948263458E0,-4.749623108E-1,-9.546098785E0,-5.763015747E-1,9.575265778E0
8.958245458E0,6.709048462E-1,-7.993976440E0,3.091072083E-1,8.028033377E0
8.968227458E0,1.448238373E0,-7.052883453E0,1.430724792E0,7.340812818E0
8.978209458E0,1.685345306E0,-6.580765228E0,2.327809296E0,7.180916091E0
8.988191458E0,1.756447449E0,-6.431974640E0,2.559377747E0,7.141835888E0
8.998173458E0,1.804946594E0,-6.562503204E0,1.982178040E0,7.088956926E0
9.008155458E0,1.483714600E0,-6.717281342E0,1.112935638E0,6.968637124E0
9.018137458E0,8.716374207E-1,-6.853348389E0,4.399351501E-1,6.922548582E0
9.028119458E0,2.896476746E-1,-6.767726440E0,-2.544708252E-3,6.773922307E0
9.038101458E0,-3.053649902E-1,-7.304360504E0,-3.755690002E-1,7.320381290E0
9.048083458E0,-5.590873718E-1,-8.380472717E0,-4.492158508E-1,8.411105548E0
9.058065458E0,-7.559280396E-1,-9.028624878E0,-5.291496277E-1,9.075653900E0
9.068047458E0,-1.098116455E0,-8.782985687E0,-4.334985352E-1,8.861975982E0
9.078029458E0,-1.487905884E0,-8.050558777E0,2.824626160E-1,8.191773048E0
9.088011458E0,-1.806742859E0,-6.935228119E0,1.141376495E0,7.257027568E0
9.097993458E0,-2.141297150E0,-5.872288513E0,1.810335388E0,6.507398872E0
9.107975458E0,-2.506238251E0,-5.356610870E0,2.093546448E0,6.273551380E0
9.117957458E0,-2.718945923E0,-5.038522339E0,2.189347229E0,6.129650527E0
9.127939458E0,-2.600542145E0,-4.571643219E0,1.929188232E0,5.602187823E0
9.137921458E0,-2.314786377E0,-3.936813354E0,1.321901093E0,4.754383015E0
9.147903458E0,-2.435884552E0,-4.186793518E0,3.594026184E-1,4.857153874E0
9.157885458E0,-2.388433228E0,-3.958518219E0,-2.327659607E-1,4.629110040E0
9.167867458E0,-2.145189056E0,-3.237018585E0,-3.912863159E-1,3.902977119E0
9.177849458E0,-1.886676636E0,-2.660118256E0,-7.207511902E-1,3.339949122E0
9.187831458E0,-1.768422546E0,-2.723586273E0,-1.268312531E0,3.486238254E0
9.197813458E0,-1.672472076E0,-3.005599823E0,-1.792971497E0,3.878858070E0
9.207795458E0,-1.552571411E0,-3.155288544E0,-2.533032532E0,4.333887122E0
9.217777458E0,-1.147214355E0,-3.554957428E0,-4.028273163E0,5.493706196E0
9.227759458E0,7.840695190E-1,-5.164560242E0,-7.405999146E0,9.062906313E0
9.237741458E0,4.860692139E0,-9.767039337E0,-1.365640137E1,1.747909276E1
9.247722458E0,1.157632690E1,-1.785996002E1,-2.049657715E1,2.954825192E1
9.257704458E0,1.575054657E1,-2.603311386E1,-1.773975998E1,3.522075835E1
9.267686458E0,1.630708923E1,-3.142924255E1,-8.511600037E0,3.641655917E1
9.277668458E0,1.526211227E1,-3.068005051E1,-5.570815430E0,3.471644502E1
9.287650458E0,1.251592300E1,-2.401890244E1,-3.050656128E0,2.725550414E1
9.297632458E0,9.760153656E0,-1.708247681E1,-1.366508331E0,1.972153539E1
9.307614458E0,7.760162659E0,-1.207464066E1,-4.478686523E-1,1.436028056E1
9.317596458E0,5.034929810E0,-1.027538223E1,6.604266357E-1,1.146168232E1
9.327578458E0,2.398312683E0,-1.241742783E1,8.144563293E-1,1.267311156E1
9.337560458E0,1.384171600E0,-1.366972366E1,1.160087585E-1,1.374011405E1
9.347542458E0,-5.674699402E-1,-1.320703583E1,-2.692001953E0,1.349054083E1
9.357524458E0,-3.614533539E0,-1.154354507E1,-6.120322723E0,1.355642415E1
9.367506458E0,-3.663032684E0,-1.108025848E1,6.646179199E-2,1.167023366E1
9.377488458E0,-2.722388763E0,-1.141675873E1,3.795806580E0,1.233539331E1
9.387470458E0,-2.487826538E0,-8.665629730E0,2.909649353E0,9.473567378E0
9.397452458E0,-1.768721924E0,-5.903423767E0,2.320175171E0,6.584983086E0
9.407434458E0,-1.423988800E0,-4.105063477E0,2.302811279E0,4.917543090E0
9.417416458E0,-1.276246033E0,-2.744243317E0,3.217259674E0,4.417061821E0
9.427398458E0,-1.476230164E0,-1.607956238E0,4.202510834E0,4.735596696E0
9.437380458E0,-2.408940582E0,-4.082011414E-1,5.312452698E0,5.847373476E0
9.447362458E0,-2.963686981E0,-9.803114319E-1,7.090155945E0,7.746919539E0
9.457344458E0,-2.217189331E0,-4.286486206E0,6.718628540E0,8.272234401E0
9.467326458E0,-1.604513397E0,-7.660469971E0,5.062173157E0,9.321097601E0
9.477308458E0,-1.656305695E0,-1.081036972E1,3.366798706E0,1.144302301E1
9.487290458E0,-1.413809967E0,-1.331855392E1,3.221151581E0,1.377528783E1
9.497272458E0,-1.595382385E0,-1.450962708E1,3.902534637E0,1.510974187E1
9.507254458E0,-1.362915802E0,-1.395667694E1,4.312981110E0,1.467133862E1
9.517236458E0,-8.225395203E-1,-1.185429886E1,4.281247101E0,1.263052055E1
9.527218458E0,-3.746708679E-1,-9.816286926E0,3.837420044E0,1.054635766E1
9.537199458E0,7.574249268E-2,-8.483757935E0,3.157234497E0,9.052514307E0
9.547181458E0,5.668711853E-1,-7.863896942E0,2.538421326E0,8.282861878E0
9.557163458E0,1.055604858E0,-7.782166901E0,1.890867920E0,8.077858923E0
9.567145458E0,1.632056122E0,-8.115373993E0,7.527845764E-1,8.312014608E0
9.577127458E0,2.492915955E0,-8.805289307E0,-3.975732422E-1,9.160011693E0
9.587109458E0,3.293451233E0,-9.243128815E0,-1.708397369E0,9.959963498E0
9.597091458E0,3.554358673E0,-1.011731094E1,-1.224304047E0,1.079316296E1
9.607073458E0,3.598516846E0,-1.108789261E1,1.005758514E0,1.170052290E1
9.617055458E0,3.716321869E0,-1.157453064E1,2.515668640E0,1.241408057E1
9.627037458E0,3.792812805E0,-1.148337021E1,3.176544342E0,1.250374561E1
9.637019458E0,3.685036926E0,-1.061996567E1,2.517165527E0,1.151951779E1
9.647001458E0,3.510649567E0,-9.657167816E0,7.237449646E-1,1.030093964E1
9.656983458E0,3.404370575E0,-8.935967560E0,-7.664062500E-1,9.593155570E0
9.666965458E0,3.217109985E0,-8.869805145E0,-7.937992859E-1,9.468545679E0
9.676947458E0,2.870430908E0,-9.281449127E0,-4.739144897E-1,9.726729483E0
9.686929458E0,2.200424194E0,-9.184899902E0,-2.362686768E0,9.735838003E0
9.696911458E0,1.315614166E0,-8.896000671E0,-3.787723389E0,9.757895114E0
9.706893458E0,1.616039429E0,-9.597891083E0,-2.231858826E-1,9.735548706E0
9.716875458E0,1.848655701E0,-9.620943146E0,1.250499573E0,9.876427699E0
9.726857458E0,1.653012543E0,-9.493108978E0,9.488768005E-1,9.682558325E0
9.736839458E0,1.438658295E0,-9.610165558E0,5.134323120E-1,9.730808418E0
9.746821458E0,1.265468445E0,-9.861193542E0,5.643264771E-2,9.942219728E0
9.756803458E0,1.224902802E0,-1.006462051E1,-1.203497314E-1,1.013959846E1
9.766784458E0,1.426084442E0,-9.984087982E0,3.653901672E-1,1.009203843E1
9.776766458E0,1.907782745E0,-9.633816376E0,1.219813385E0,9.896362850E0
9.786748458E0,2.480342102E0,-9.637558594E0,1.844913483E0,1.012118266E1
9.796730458E0,2.998714142E0,-9.949809265E0,2.159259796E0,1.061383031E1
9.806712458E0,3.433410187E0,-1.013781830E1,2.078128510E0,1.090331525E1
9.816694458E0,3.713328094E0,-1.039498352E1,2.386337585E0,1.129332081E1
9.826676458E0,3.877985687E0,-1.079165863E1,2.985092468E0,1.184944919E1
9.836658458E0,4.025129700E0,-1.098849930E1,3.035986633E0,1.208991318E1
9.846640458E0,4.173620911E0,-1.104253693E1,2.850372620E0,1.214419027E1
9.856622458E0,4.404141541E0,-1.136556519E1,2.638413391E0,1.247131749E1
9.866604458E0,4.741839294E0,-1.205098984E1,2.198478241E0,1.313562722E1
9.876586458E0,5.242548065E0,-1.304776703E1,1.382075958E0,1.412935485E1
9.886568458E0,5.773194580E0,-1.395907196E1,1.814227295E-1,1.510689842E1
9.896546250E0,5.999673615E0,-1.431263672E1,-3.841012573E-1,1.552401968E1
9.906528250E0,5.510341187E0,-1.365235977E1,-2.151775360E0,1.487887511E1
9.916510250E0,3.479065247E0,-1.243524078E1,-1.637504791E1,2.085380787E1
9.926492250E0,1.573527832E0,-1.271949966E1,-7.236102448E0,1.471811266E1
9.936474250E0,2.059567108E0,-1.404259827E1,3.560795288E0,1.463269100E1
9.946456250E0,1.578467560E0,-1.421788376E1,4.267625427E0,1.492824187E1
9.956438250E0,4.544549561E-1,-1.431128952E1,2.539768524E0,1.454200678E1
9.966419250E0,-7.436535645E-1,-1.480391510E1,-1.618135071E-1,1.482346473E1
9.976401250E0,-1.491199036E0,-1.582658844E1,-1.745370483E-1,1.589764257E1
9.986383250E0,-1.708097992E0,-1.699730392E1,7.710466003E-1,1.710030562E1
9.996365250E0,-1.874851227E0,-1.786445068E1,1.283281403E0,1.800834464E1
1.000634725E1,-2.070494385E0,-1.849389175E1,1.166973267E0,1.864598632E1
1.001632925E1,-2.550546112E0,-1.882290756E1,1.016087036E0,1.902208105E1
1.002631125E1,-3.071911926E0,-1.754681122E1,-1.148112488E-1,1.781405087E1
1.003629325E1,-2.076781311E0,-1.406565033E1,-3.894900513E-1,1.422347504E1
1.004627525E1,-3.010240173E-1,-1.070543793E1,1.050665131E0,1.076108330E1
1.005625725E1,9.969268799E-1,-8.425678711E0,2.223925323E0,8.771075692E0
1.006623925E1,1.489552460E0,-7.322622528E0,2.825823669E0,7.989045414E0
1.007622125E1,1.457369385E0,-6.743027802E0,2.969375153E0,7.510628353E0
1.008620325E1,1.224902802E0,-6.444398804E0,2.326013031E0,6.959956856E0
1.009618525E1,1.003213806E0,-6.179300079E0,6.963519287E-1,6.298816827E0
1.010616725E1,9.666897583E-1,-5.961353302E0,-8.629554749E-1,6.100566730E0
1.011614925E1,1.077609100E0,-5.890251160E0,-1.755399628E0,6.240010252E0
1.012613125E1,9.238787842E-1,-6.149212646E0,-1.782493286E0,6.468666825E0
1.013611325E1,6.228547668E-1,-6.702462158E0,-1.429676971E0,6.881491356E0
1.014609425E1,1.468446350E-1,-7.361391907E0,-1.173858948E0,7.455843278E0
1.015607625E1,-5.084925842E-1,-7.758067017E0,-7.107220459E-1,7.807130995E0
1.016605825E1,-1.085243225E0,-7.684420166E0,-8.547225952E-2,7.761144996E0
1.017604025E1,-1.672023010E0,-7.396568756E0,4.908293152E-1,7.599065977E0
1.018602225E1,-2.140698395E0,-7.249724121E0,1.163829803E0,7.648240926E0
1.019600425E1,-2.479294281E0,-7.073839874E0,1.741927643E0,7.695480661E0
1.020598625E1,-2.734962616E0,-6.757397919E0,1.807191925E0,7.510551897E0
1.021596825E1,-2.744243317E0,-6.215375061E0,1.433718567E0,6.943868335E0
1.022595025E1,-2.529739380E0,-5.619763641E0,9.006770325E-1,6.228366064E0
1.023593225E1,-2.104174347E0,-5.012775879E0,5.754034424E-1,5.466860234E0
1.024591425E1,-1.713786163E0,-4.455185394E0,3.674858093E-1,4.787565742E0
1.025589625E1,-1.328936462E0,-3.858376465E0,9.714797974E-2,4.081982214E0
1.026587825E1,-9.482780457E-1,-3.253334656E0,2.948867798E-2,3.388847476E0
1.027586025E1,-6.418652344E-1,-2.754721527E0,-2.189945984E-1,2.836977318E0
1.028584225E1,-5.780978394E-1,-2.666255493E0,-9.035211182E-1,2.873928649E0
1.029582425E1,-4.379891968E-1,-2.737657013E0,-1.181493073E0,3.013723003E0
1.030580625E1,-2.091151428E-1,-3.097808075E0,-1.460512848E0,3.431215789E0
1.031578725E1,1.308279419E-1,-3.625760193E0,-2.255958710E0,4.272306476E0
1.032576925E1,1.132544861E0,-4.655917969E0,-4.809648285E0,6.789178641E0
1.033575125E1,3.723207550E0,-7.609725494E0,-1.087189178E1,1.378289620E1
1.034573325E1,9.026080170E0,-1.401430710E1,-1.925760361E1,2.547010450E1
1.035571525E1,1.493219833E1,-2.232352798E1,-2.050750443E1,3.379154016E1
1.036569725E1,1.739861938E1,-2.958028748E1,-1.095916031E1,3.602511011E1
1.037567925E1,1.695628922E1,-3.178131042E1,-3.980821838E0,3.624105929E1
1.038566125E1,1.422357193E1,-2.507465698E1,-3.043171692E0,2.898808920E1
1.039564325E1,1.091125992E1,-1.681528244E1,-1.664089508E0,2.011413708E1
1.040562525E1,8.114924927E0,-1.072609497E1,-1.284927979E0,1.351118647E1
1.041560725E1,5.491630096E0,-8.218359833E0,-1.484762421E0,9.995196792E0
1.042558925E1,2.734513550E0,-1.037477554E1,-3.405418396E-1,1.073450049E1
1.043557125E1,1.473835144E0,-1.311482758E1,-7.155120850E-2,1.319757599E1
1.044555325E1,6.629713440E-1,-1.470541992E1,-9.330097961E-1,1.474989537E1
1.045553525E1,-7.201524353E-1,-1.464419724E1,-2.003284149E0,1.479811743E1
1.046551625E1,-2.893932037E0,-1.169338348E1,-4.183200989E0,1.275183244E1
1.047549825E1,-2.907703400E0,-1.064122147E1,2.937341766E0,1.141570453E1
1.048548025E1,-2.608325958E0,-8.986412659E0,4.061653748E0,1.020078467E1
1.049546225E1,-2.007625122E0,-7.252119141E0,4.374652863E0,8.704101236E0
1.050544425E1,-1.922751617E0,-5.896089020E0,4.437971191E0,7.626036179E0
1.051542625E1,-1.846560059E0,-4.581522675E0,3.888463898E0,6.286516170E0
1.052540825E1,-1.899400177E0,-3.725602570E0,3.862717438E0,5.692839497E0
1.053539025E1,-2.824476471E0,-2.725382538E0,5.322631531E0,6.613303541E0
1.054537225E1,-4.067341919E0,-2.094294891E0,7.968529358E0,9.188405820E0
1.055535425E1,-3.788322144E0,-4.661157074E0,7.932154999E0,9.949716220E0
1.056533625E1,-3.315754852E0,-7.860304413E0,6.516548767E0,1.073517692E1
1.057531825E1,-3.400628357E0,-1.085452789E1,4.481680298E0,1.222581315E1
1.058530025E1,-3.274590454E0,-1.300809952E1,2.804268494E0,1.370392343E1
1.059528125E1,-3.363505554E0,-1.350776047E1,1.936073914E0,1.405422160E1
1.060526325E1,-3.152893524E0,-1.279569122E1,1.900148621E0,1.331469174E1
1.061524525E1,-2.356549530E0,-1.047162415E1,2.578687592E0,1.103892511E1
1.062522725E1,-1.809736633E0,-9.029672699E0,2.522853699E0,9.548556253E0
1.063520925E1,-1.258732452E0,-8.571475525E0,2.579885101E0,9.039380908E0
1.064519125E1,-4.378395081E-1,-8.306676178E0,2.164798279E0,8.595284995E0
1.065517325E1,1.957928467E-1,-8.559650116E0,1.686093750E0,8.726331250E0
1.066515525E1,8.825646973E-1,-9.079369354E0,1.635798340E0,9.267669854E0
1.067513725E1,1.878892822E0,-9.492809601E0,3.484753418E-1,9.683238478E0
1.068511925E1,2.861000519E0,-9.652527466E0,-4.459226990E-1,1.007747277E1
1.069510125E1,3.480562134E0,-1.014485367E1,4.212240601E-1,1.073358274E1
1.070508325E1,3.836671600E0,-1.079210770E1,2.562670898E0,1.173698938E1
1.071506525E1,4.122277679E0,-1.096859070E1,3.777843933E0,1.231159047E1
1.072504625E1,4.294569397E0,-1.053943314E1,4.027973785E0,1.207259500E1
1.073502825E1,4.320914612E0,-9.771829376E0,3.077001343E0,1.111876296E1
1.074501025E1,4.530927887E0,-9.163793793E0,1.209335175E0,1.029402330E1
1.075499225E1,5.146298218E0,-8.831335144E0,-1.121318207E0,1.028271464E1
1.076497425E1,5.804928589E0,-9.130263519E0,-3.952081604E0,1.151858745E1
1.077495625E1,6.369255066E0,-9.696086884E0,-1.349922821E1,1.779917620E1
1.078493825E1,4.035009155E0,-9.431736603E0,-2.997816010E0,1.068764965E1
1.079492025E1,3.131038971E0,-9.999206543E0,4.505181427E0,1.140544590E1
1.080490225E1,3.193159790E0,-9.437724152E0,4.236939240E0,1.082675209E1
1.081488425E1,2.725232849E0,-8.538544006E0,3.275039520E0,9.542510764E0
1.082486625E1,2.140399017E0,-8.439300385E0,1.962269440E0,8.924886570E0
1.083484825E1,1.707648926E0,-8.697663116E0,9.436376953E-1,8.913801694E0
1.084482925E1,1.405876465E0,-9.132209473E0,1.365161133E-1,9.240799486E0
1.085481125E1,1.168170776E0,-9.247769165E0,-5.921685791E-1,9.340049310E0
1.086479325E1,1.079255676E0,-9.066645813E0,-8.933422852E-1,9.174253079E0
1.087477525E1,1.266366577E0,-9.204509125E0,-5.801934814E-1,9.309312381E0
1.088475725E1,1.714384918E0,-9.407936096E0,1.627116394E-1,9.564248654E0
1.089473983E1,2.333198090E0,-9.841734009E0,1.014141083E0,1.016523604E1
1.090472183E1,2.948718109E0,-1.041129959E1,1.524878998E0,1.092773323E1
1.091470383E1,3.500171356E0,-1.073417816E1,1.917063446E0,1.145202657E1
1.092468583E1,3.883524170E0,-1.075603271E1,2.434537354E0,1.169191908E1
1.093466783E1,4.026027832E0,-1.072130493E1,2.990032196E0,1.183619753E1
1.094464983E1,4.184398499E0,-1.092727661E1,3.443738708E0,1.219729073E1
1.095463183E1,4.518952789E0,-1.154010223E1,3.504961395E0,1.287942733E1
1.096461283E1,5.064568176E0,-1.269644760E1,3.164120178E0,1.403072660E1
1.097459483E1,5.812712402E0,-1.420516022E1,2.205064545E0,1.550601535E1
1.098457683E1,6.678961029E0,-1.543964310E1,-6.084846497E-1,1.683334052E1
1.099455883E1,7.895481262E0,-1.662098648E1,-1.812760345E1,2.583032758E1
1.100454083E1,4.775818634E0,-1.464958603E1,-1.198797089E1,1.952255773E1
1.101452283E1,2.408790894E0,-1.334459976E1,2.975362701E0,1.388284551E1
1.102450483E1,2.285597076E0,-1.306617874E1,5.183570709E0,1.424143203E1
1.103448683E1,9.834548950E-1,-1.315449509E1,1.384171600E0,1.326362905E1
1.104446883E1,-1.353186035E-1,-1.444406342E1,-2.081721039E0,1.459393167E1
1.105445083E1,-1.281335449E-1,-1.665691177E1,-1.317260742E-1,1.665792544E1
1.106443283E1,-2.109114075E-1,-1.856349701E1,2.274071045E0,1.870345701E1
1.107441383E1,-4.400848389E-1,-1.970322693E1,3.165916443E0,1.996080792E1
1.108439583E1,-9.355545044E-1,-1.962074844E1,2.955154724E0,1.986408747E1
1.109437783E1,-1.365759888E0,-1.875345200E1,1.982926483E0,1.890738637E1
1.110435983E1,-1.452279968E0,-1.790666290E1,8.768765259E-1,1.798684536E1
1.111434183E1,-1.145867157E0,-1.598001938E1,3.817062378E-2,1.602109509E1
1.112432383E1,-1.059796143E-1,-1.309925995E1,-5.378315735E-1,1.311072483E1
1.113430583E1,1.086291046E0,-1.061682220E1,-3.978726196E-1,1.067966500E1
1.114428783E1,1.893712006E0,-8.723708954E0,8.378077698E-1,8.966112030E0
1.115426983E1,1.894759827E0,-7.394323425E0,2.267185364E0,7.962804983E0
1.116425183E1,1.460512848E0,-6.483766937E0,2.548151093E0,7.117963576E0
1.117423283E1,9.801617432E-1,-5.758525085E0,2.122735748E0,6.215089320E0
1.118421483E1,6.480024719E-1,-5.360502777E0,1.221609650E0,5.535993801E0
1.119419683E1,6.764433289E-1,-5.412594452E0,3.314108276E-1,5.464758679E0
1.120417883E1,5.559439087E-1,-5.488486633E0,-7.649093628E-2,5.517101596E0
1.121416083E1,3.351530457E-1,-5.807323608E0,-4.340972900E-2,5.817148740E0
1.122414283E1,1.306782532E-1,-6.278244324E0,1.257385254E-1,6.280862900E0
1.123412483E1,-6.406677246E-2,-6.735393677E0,3.809577942E-1,6.746462879E0
1.124410683E1,-3.794609070E-1,-6.912625122E0,5.849835205E-1,6.947703389E0
1.125408883E1,-7.774832153E-1,-6.831344147E0,5.926176453E-1,6.900937521E0
1.126407083E1,-1.105451202E0,-6.577621765E0,8.553213501E-1,6.724485486E0
1.127405183E1,-1.430126038E0,-6.189179535E0,1.520837402E0,6.531780018E0
1.128403383E1,-1.794468384E0,-5.675298157E0,2.028282166E0,6.288326844E0
1.129401583E1,-2.096091156E0,-5.210215302E0,2.129172363E0,6.006106607E0
1.130399783E1,-2.309098206E0,-4.848118286E0,1.958676910E0,5.715995161E0
1.131397983E1,-2.392025757E0,-4.526137848E0,1.607357483E0,5.365753360E0
1.132396183E1,-2.359243927E0,-4.186943207E0,1.252295837E0,4.966363880E0
1.133394383E1,-2.256557465E0,-3.854185181E0,7.322772217E-1,4.525817598E0
1.134392583E1,-2.077529755E0,-3.470083923E0,1.097218323E-1,4.045942560E0
1.135390783E1,-1.802252197E0,-3.182232513E0,-3.233276367E-1,3.671410834E0
1.136388983E1,-1.460213470E0,-3.101999359E0,-6.159690857E-1,3.483395085E0
1.137387083E1,-1.219514008E0,-3.246748352E0,-1.023122406E0,3.615987933E0
1.138385283E1,-1.084494781E0,-3.527714081E0,-1.986369324E0,4.191247864E0
1.139383483E1,-9.910890198E-1,-4.052223358E0,-3.777394867E0,5.627742316E0
1.140381683E1,2.101629639E-1,-6.040388947E0,-7.883356476E0,9.933668830E0
1.141379883E1,3.802692261E0,-1.121153549E1,-1.618314697E1,2.005126536E1
1.142378083E1,1.045111679E1,-1.978360977E1,-2.332958588E1,3.232470626E1
1.143376283E1,1.486349121E1,-2.759855850E1,-1.976489868E1,3.705745569E1
1.144374483E1,1.518622009E1,-3.284305252E1,-9.388027496E0,3.738211390E1
1.145372683E1,1.384081787E1,-3.100637192E1,-4.468208313E0,3.424803972E1
1.146370783E1,1.079644867E1,-2.384256912E1,-1.876797180E0,2.624030819E1
1.147368983E1,7.979456635E0,-1.702275101E1,-3.567082214E-1,1.880353745E1
1.148367183E1,5.334756317E0,-1.204560104E1,1.586700439E-1,1.317502583E1
1.149365383E1,2.280956726E0,-1.117156860E1,7.707472229E-1,1.142806895E1
1.150363583E1,8.481362915E-1,-1.261172379E1,9.358538818E-1,1.267480708E1
1.151361783E1,1.267863464E-1,-1.349219284E1,-5.459147644E-1,1.350382780E1
1.152359983E1,-1.351539459E0,-1.311707291E1,-5.708978119E0,1.436929684E1
1.153358183E1,-2.717748413E0,-1.006671616E1,-7.981252899E0,1.313108253E1
1.154356383E1,-2.169438629E0,-9.604327698E0,2.934347992E0,1.027423830E1
1.155354483E1,-1.606908417E0,-8.476722565E0,5.875431976E0,1.043827960E1
1.156352683E1,-1.171613617E0,-5.453908539E0,5.721252594E0,7.990652543E0
1.157350883E1,-1.122515717E0,-3.475472717E0,5.701643372E0,6.771092178E0
1.158349083E1,-9.839039612E-1,-2.797682190E0,5.212909698E0,5.997459476E0
1.159347283E1,-1.007854156E0,-2.388133850E0,5.304519196E0,5.903971306E0
1.160345483E1,-1.458866272E0,-2.035766602E0,6.214177551E0,6.699898439E0
1.161343683E1,-2.597398682E0,-2.095043335E0,7.428003387E0,8.143151774E0
1.162341883E1,-3.140619049E0,-3.962859192E0,7.589068451E0,9.119303753E0
1.163339983E1,-2.510130157E0,-7.689060516E0,5.112019501E0,9.568445454E0
1.164338183E1,-1.775906982E0,-1.099673218E1,2.045795746E0,1.132551299E1
1.165336383E1,-1.556762695E0,-1.317679871E1,9.352551270E-1,1.330136220E1
1.166334583E1,-1.697470093E0,-1.415067352E1,7.952961731E-1,1.427429374E1
1.167332783E1,-1.642085266E0,-1.423494827E1,9.243278503E-1,1.435912875E1
1.168330983E1,-1.238374786E0,-1.251682114E1,1.525328064E0,1.267008323E1
1.169329183E1,-1.037941589E0,-9.988279266E0,2.188299408E0,1.027772834E1
1.170327383E1,-8.369096375E-1,-8.513096924E0,2.202519836E0,8.833138208E0
1.171325583E1,-3.909869385E-1,-7.910899200E0,1.930834808E0,8.152503910E0
1.172323683E1,2.339634705E-1,-8.083490295E0,1.778152313E0,8.280059173E0
1.173321883E1,9.904902649E-1,-8.532556458E0,1.091081085E0,8.658871093E0
1.174320083E1,1.745370483E0,-8.943601685E0,3.718267822E-1,9.119900458E0
1.175318283E1,2.429148560E0,-9.395811310E0,5.348377991E-1,9.719469346E0
1.176316483E1,2.849923553E0,-9.739795990E0,1.467099152E0,1.025368568E1
1.177314683E1,3.245700531E0,-1.007090744E1,2.915187836E0,1.097524800E1
1.178312883E1,3.569028168E0,-1.021161484E1,3.797303467E0,1.146449097E1
1.179311083E1,3.778891754E0,-1.002914429E1,3.727249146E0,1.134707646E1
1.180309183E1,3.912264404E0,-9.545200653E0,2.739602966E0,1.067342928E1
1.181307383E1,3.999083862E0,-9.118438110E0,1.143771515E0,1.002231503E1
1.182305583E1,4.097579041E0,-9.239985352E0,-4.297563171E-1,1.011692512E1
1.183303783E1,4.161196747E0,-9.767488403E0,-1.101259918E0,1.067390095E1
1.184301983E1,4.249363403E0,-1.032717453E1,-6.436465302E0,1.288936417E1
1.185300183E1,3.441044312E0,-9.834099884E0,-1.246817230E1,1.624824997E1
1.186298383E1,2.233056335E0,-1.002345612E1,1.305734711E0,1.035186728E1
1.187296483E1,2.848726044E0,-9.803862762E0,4.184847565E0,1.103376247E1
1.188294683E1,2.744393005E0,-8.731792145E0,3.322640533E0,9.737341893E0
1.189292883E1,2.337389374E0,-8.386160889E0,2.534978485E0,9.067370041E0
1.190291125E1,1.988914032E0,-8.696914673E0,1.688937836E0,9.079901699E0
1.191289325E1,1.729054413E0,-9.394314423E0,8.845106506E-1,9.592973039E0
1.192287525E1,1.587598572E0,-9.977202301E0,2.293231201E-1,1.010532652E1
1.193285725E1,1.613045654E0,-1.020143600E1,-1.866618347E-1,1.032986232E1
1.194283925E1,1.828597412E0,-9.942175140E0,-1.267863464E-1,1.010973243E1
1.195282025E1,2.105072479E0,-9.655072174E0,3.929328918E-1,9.889698938E0
1.196280225E1,2.409838715E0,-9.708660736E0,1.007255402E0,1.005385396E1
1.197278425E1,2.745889893E0,-9.825417938E0,1.504072266E0,1.031217641E1
1.198276625E1,3.064726868E0,-1.006656647E1,2.013762360E0,1.071370851E1
1.199274825E1,3.296594696E0,-1.040246796E1,2.569855957E0,1.121084456E1
1.200273025E1,3.496578827E0,-1.080183746E1,2.729274445E0,1.167710131E1
1.201271225E1,3.674708405E0,-1.117950211E1,2.424059143E0,1.201502442E1
1.202269325E1,3.809577942E0,-1.166539169E1,2.180216217E0,1.246385134E1
1.203267525E1,4.091142426E0,-1.252026398E1,2.202370148E0,1.335458313E1
1.204265725E1,4.548291779E0,-1.364053436E1,2.030228119E0,1.452146556E1
1.205263925E1,5.138664093E0,-1.468326599E1,1.304836578E0,1.561111038E1
1.206262125E1,5.604495392E0,-1.499297195E1,1.911524963E-1,1.600737692E1
1.207260325E1,5.601351929E0,-1.418061127E1,-1.275347900E0,1.530004548E1
1.208258525E1,5.031037903E0,-1.309387115E1,-1.672801392E1,2.183087845E1
1.209256625E1,2.436183929E0,-1.281694702E1,-1.234737350E1,1.796292725E1
1.210254825E1,1.741478577E0,-1.370355331E1,3.204536133E0,1.418059142E1
1.211253025E1,1.564396820E0,-1.403062317E1,4.878654785E0,1.493676660E1
1.212251225E1,-8.217910767E-2,-1.371133713E1,5.532495117E-1,1.372274041E1
1.213249425E1,-1.286275177E0,-1.392164978E1,-2.386187897E0,1.418311422E1
1.214247625E1,-1.414408722E0,-1.511736328E1,-4.041595459E-1,1.518876458E1
1.215245825E1,-1.382225647E0,-1.625873978E1,1.839973755E0,1.642079993E1
1.216243925E1,-1.235231323E0,-1.703173233E1,2.993924103E0,1.733693410E1
1.217242125E1,-1.266965332E0,-1.706017319E1,3.521876221E0,1.746591888E1
1.218240325E1,-1.683698730E0,-1.680959427E1,2.769241333E0,1.711917050E1
1.219238525E1,-2.056872711E0,-1.652189255E1,1.312021637E0,1.670104965E1
1.220236725E1,-1.774110718E0,-1.524849060E1,1.047821045E0,1.538706806E1
1.221234925E1,-7.520361328E-1,-1.319521042E1,1.080752563E0,1.326073763E1
1.222233125E1,4.568499756E-1,-1.104014191E1,7.185058594E-1,1.107292626E1
1.223231225E1,1.642085266E0,-9.638905792E0,-1.224453735E-1,9.778544972E0
1.224229425E1,2.270628204E0,-8.385562134E0,-3.836521912E-1,8.696010220E0
1.225227625E1,2.319726105E0,-7.262148285E0,3.231779480E-1,7.630489558E0
1.226225825E1,2.021845551E0,-6.430477753E0,9.681866455E-1,6.810013872E0
1.227224025E1,1.814826050E0,-5.874234467E0,8.663983154E-1,6.208934707E0
1.228222225E1,1.521585846E0,-5.632487183E0,2.092648315E-1,5.838144150E0
1.229220425E1,8.565188599E-1,-5.653144226E0,-1.601669312E-1,5.719905388E0
1.230218525E1,1.055305481E-1,-5.869145050E0,-2.800675964E-1,5.876771067E0
1.231216725E1,-4.629872131E-1,-6.154152374E0,-4.635859680E-1,6.188930486E0
1.232214925E1,-9.523196411E-1,-6.331683197E0,-6.542893982E-1,6.436242648E0
1.233213125E1,-1.313069458E0,-6.478228455E0,-8.232879639E-1,6.661035834E0
1.234211325E1,-1.591789856E0,-6.557413788E0,-6.962022400E-1,6.783669220E0
1.235209525E1,-1.789229279E0,-6.505771179E0,-1.290316772E-1,6.748559048E0
1.236207625E1,-1.940863953E0,-6.312972107E0,6.643185425E-1,6.637912988E0
1.237205825E1,-2.009870453E0,-5.961952057E0,1.172362061E0,6.399912841E0
1.238204025E1,-2.111060028E0,-5.401517487E0,1.029559021E0,5.890072782E0
1.239202225E1,-2.122735748E0,-4.746329956E0,6.454577637E-1,5.239300605E0
1.240200425E1,-1.922601929E0,-4.265829163E0,4.013154602E-1,4.696248579E0
1.241198625E1,-1.618733826E0,-3.879183197E0,2.525248718E-1,4.210953608E0
1.242196825E1,-1.317111053E0,-3.493585052E0,6.616241455E-2,3.734206142E0
1.243194925E1,-9.292675781E-1,-3.188669128E0,5.882766724E-2,3.321838307E0
1.244193125E1,-6.011499023E-1,-3.028352509E0,-5.792953491E-2,3.087985744E0
1.245191325E1,-3.550616455E-1,-2.982996826E0,-3.430865479E-1,3.023581852E0
1.246189525E1,-9.116043091E-2,-3.160078583E0,-5.807922363E-1,3.214300312E0
1.247187725E1,1.221459961E-1,-3.661535797E0,-8.138575745E-1,3.752882651E0
1.248185925E1,3.570075989E-1,-4.510570221E0,-2.051783295E0,4.968149840E0
1.249184025E1,1.414109344E0,-6.477929077E0,-5.669759674E0,8.724072737E0
1.250182225E1,3.879781952E0,-1.010683273E1,-1.242371475E1,1.647875797E1
1.251180425E1,8.575966187E0,-1.608974121E1,-1.996428406E1,2.703700439E1
1.252178625E1,1.425485687E1,-2.322719879E1,-2.077679443E1,3.426921206E1
1.253176825E1,1.682905380E1,-2.845792145E1,-1.272773254E1,3.542690391E1
1.254175025E1,1.607896362E1,-2.988655060E1,-6.526278534E0,3.455909850E1
1.255173125E1,1.282607803E1,-2.485536301E1,-3.733536072E0,2.821766538E1
1.256171325E1,9.437125397E0,-1.973930191E1,-1.234183502E0,2.191398149E1
1.257169525E1,6.348897400E0,-1.755429565E1,-1.423539734E-1,1.866767417E1
1.258167725E1,3.661535797E0,-1.681932404E1,6.948550415E-1,1.722728443E1
1.259165925E1,1.424288177E0,-1.533740570E1,7.213499451E-1,1.542027744E1
1.260164125E1,-8.921447754E-2,-1.433673660E1,-1.966909790E-1,1.433836333E1
1.261162225E1,-1.450184326E0,-1.284643570E1,-2.100881195E0,1.309761988E1
1.262160425E1,-3.788771210E0,-9.753866730E0,-7.556436310E0,1.290706912E1
1.263158625E1,-4.439917145E0,-8.051456909E0,-5.599855042E0,1.076555614E1
1.264156825E1,-3.281027069E0,-7.924670563E0,7.957452393E-1,8.613869783E0
1.265155025E1,-2.302062836E0,-5.794600067E0,3.416794739E0,7.109948630E0
1.266153225E1,-1.633852386E0,-3.311713257E0,4.335135040E0,5.694761991E0
1.267151325E1,-1.282383270E0,-1.662293243E0,5.144202576E0,5.556126872E0
1.268149525E1,-1.174757080E0,-5.899232483E-1,5.614225159E0,5.766072127E0
1.269147725E1,-1.184935913E0,-2.559677124E-2,6.359974365E0,6.469466921E0
1.270145925E1,-1.654958496E0,2.125579834E-1,8.048612823E0,8.219746766E0
1.271144125E1,-2.284549255E0,-1.136137390E0,1.008887009E1,1.040650148E1
1.272142325E1,-2.671943665E0,-4.470753021E0,9.835297394E0,1.112924033E1
1.273140425E1,-1.891915741E0,-8.503666534E0,7.372618561E0,1.141258928E1
1.274138625E1,-1.136137390E0,-1.186522614E1,4.228706360E0,1.264738538E1
1.275136825E1,-7.119195557E-1,-1.457593918E1,2.781665497E0,1.485605921E1
1.276135025E1,-7.514373779E-1,-1.615680176E1,1.632954254E0,1.625648919E1
1.277133225E1,-1.086889801E0,-1.612940872E1,6.032455444E-1,1.617723896E1
1.278131425E1,-1.480571136E0,-1.462129486E1,3.820056152E-1,1.470102998E1
1.279129525E1,-1.698218536E0,-1.226923599E1,2.721340942E-1,1.238919509E1
1.280127725E1,-1.497036896E0,-9.929002533E0,4.740641785E-1,1.005241004E1
1.281125925E1,-1.201251984E0,-8.298592987E0,3.273692322E-1,8.391473202E0
1.282124125E1,-6.210585022E-1,-7.358248444E0,-7.149133301E-1,7.418937585E0
1.283122325E1,2.200424194E-2,-7.111561432E0,-2.447410583E-1,7.115805532E0
1.284120525E1,7.819738770E-1,-7.312144318E0,2.466870117E-1,7.357974731E0
1.285118625E1,1.490600281E0,-8.118966522E0,1.257385254E0,8.349881692E0
1.286116825E1,2.267784119E0,-9.056616669E0,2.632126465E0,9.700167010E0
1.287115025E1,3.005150757E0,-9.991422729E0,3.829636230E0,1.111420590E1
1.288113225E1,3.609294434E0,-1.084509750E1,4.669240265E0,1.234685996E1
1.289111425E1,4.061354370E0,-1.130973129E1,4.837041321E0,1.295382530E1
1.290109837E1,4.504432983E0,-1.133832184E1,3.820056152E0,1.278437670E1
1.291108038E1,7.100484467E0,-1.195668594E1,-8.098608856E0,1.609244182E1
1.292106237E1,8.477171631E0,-1.114327744E1,-1.037357803E1,1.742544668E1
1.293104438E1,5.667065277E0,-8.786278839E0,4.755610657E-1,1.046615894E1
1.294102638E1,4.656516724E0,-7.987689514E0,2.988535309E0,9.716875787E0
1.295100837E1,4.286935272E0,-7.877817993E0,2.955154724E0,9.443027576E0
1.296098938E1,3.715573425E0,-8.194858704E0,2.422562256E0,9.318261798E0
1.297097137E1,3.189267883E0,-8.896749115E0,1.324445801E0,9.543465363E0
1.298095338E1,2.622845764E0,-9.312285004E0,5.499563599E-1,9.690223108E0
1.299093537E1,2.106719055E0,-9.326056366E0,2.612068176E-1,9.564612983E0
1.300091738E1,1.595532074E0,-9.293573914E0,-5.508544922E-2,9.429701644E0
1.301089938E1,1.198856964E0,-9.390572205E0,-3.790118408E-1,9.474373558E0
1.302088037E1,9.369017029E-1,-9.634265442E0,-5.610333252E-1,9.695958632E0
1.303086238E1,8.063731384E-1,-1.004845413E1,-5.080435181E-1,1.009355122E1
1.304084437E1,7.189549255E-1,-1.044812302E1,-1.850152588E-1,1.047446425E1
1.305082638E1,7.542814636E-1,-1.065903442E1,4.791535950E-1,1.069642667E1
1.306080837E1,8.882528687E-1,-1.059930862E1,1.454076233E0,1.073539353E1
1.307078938E1,1.191971283E0,-1.035741165E1,2.498155060E0,1.072089317E1
1.308077138E1,1.701212311E0,-1.021700363E1,3.426225128E0,1.090964276E1
1.309075337E1,2.280507660E0,-1.026445496E1,3.901935883E0,1.121538472E1
1.310073538E1,2.806513824E0,-1.059362045E1,3.676953735E0,1.155946811E1
1.311071737E1,3.218008118E0,-1.134939880E1,3.076402588E0,1.219133636E1
1.312069938E1,3.549269257E0,-1.214005463E1,2.580633545E0,1.290883062E1
1.313068037E1,3.968247986E0,-1.297067734E1,2.315684509E0,1.376037272E1
1.314066238E1,4.585264893E0,-1.380758698E1,2.069446564E0,1.469546601E1
1.315064437E1,5.210814056E0,-1.451815933E1,1.461560669E0,1.549405348E1
1.316062637E1,5.745502167E0,-1.452639221E1,4.153862000E-1,1.562688106E1
1.317060838E1,5.981860657E0,-1.368454285E1,-7.150630188E-1,1.495194586E1
1.318058937E1,6.831942902E0,-1.278985336E1,-1.494342499E1,2.082214550E1
1.319057138E1,5.410349121E0,-1.229498245E1,-1.706750793E1,2.171953725E1
1.320055337E1,2.765349426E0,-1.225666214E1,1.972597961E0,1.271865036E1
1.321053538E1,2.575544128E0,-1.251008514E1,6.415059814E0,1.429295807E1
1.322051737E1,1.989961853E0,-1.234812195E1,3.954326935E0,1.311765091E1
1.323049938E1,3.692820740E-1,-1.254137009E1,-1.744172974E0,1.266745721E1
1.324048038E1,1.381626892E-1,-1.386821091E1,-7.481442261E-1,1.388906341E1
1.325046237E1,2.824626160E-1,-1.484986954E1,2.379152527E0,1.504190072E1
1.326044438E1,2.350112915E-1,-1.531555115E1,4.069287872E0,1.584867316E1
1.327042637E1,7.185058594E-2,-1.531031204E1,4.491859131E0,1.595580195E1
1.328040838E1,-3.269201660E-1,-1.541359726E1,3.700155487E0,1.585487332E1
1.329038937E1,-9.376501465E-1,-1.587299194E1,1.703158264E0,1.599161684E1
1.330037138E1,-1.057101746E0,-1.588421860E1,7.295828247E-1,1.593606462E1
1.331035338E1,-6.417155457E-1,-1.474568619E1,1.068627777E0,1.479827778E1
1.332033537E1,4.403842163E-1,-1.270527924E1,5.646258545E-1,1.272544149E1
1.333031738E1,2.143392792E0,-1.068882248E1,-1.343306580E0,1.098405805E1
1.334029937E1,3.512595520E0,-9.194030914E0,-1.738035736E0,9.994463465E0
1.335028038E1,3.655697937E0,-7.931556244E0,6.197113037E-2,8.733702095E0
1.336026237E1,2.995420990E0,-6.880142670E0,2.210752716E0,7.822808807E0
1.337024438E1,2.217339020E0,-6.186185760E0,3.082240448E0,7.258491081E0
1.338022637E1,1.293759613E0,-5.879772949E0,2.407294006E0,6.483872940E0
1.339020837E1,3.363505554E-1,-5.960006104E0,1.269210663E0,6.102925541E0
1.340018938E1,-2.588117981E-1,-6.372997284E0,5.037025452E-1,6.398108641E0
1.341017137E1,-6.764433289E-1,-6.820566559E0,-2.424957275E-2,6.854071185E0
1.342015338E1,-1.021176453E0,-7.164850616E0,-4.305047607E-1,7.250049659E0
1.343013537E1,-1.320703583E0,-7.330855408E0,-5.857319641E-1,7.471865958E0
1.344011738E1,-1.650767212E0,-7.222480774E0,-4.662803650E-1,7.423387252E0
1.345009837E1,-2.007176056E0,-6.892117767E0,-3.667373657E-2,7.178536620E0
1.346008037E1,-2.385439453E0,-6.460714874E0,5.050497437E-1,6.905521944E0
1.347006238E1,-2.718945923E0,-6.024671631E0,8.836125183E-1,6.668591026E0
1.348004437E1,-2.953957214E0,-5.568270721E0,1.081950073E0,6.395476371E0
1.349002638E1,-3.061284027E0,-5.182522888E0,9.629475403E-1,6.095676447E0
1.350000837E1,-3.073857880E0,-4.930896149E0,6.203100586E-1,5.843554027E0
1.350998938E1,-2.916235657E0,-4.707859955E0,1.104702759E-1,5.539005275E0
1.351997137E1,-2.540966034E0,-4.418212280E0,-3.330574036E-1,5.107644797E0
1.352995338E1,-2.052831116E0,-4.084705811E0,-5.026547241E-1,4.599086748E0
1.353993538E1,-1.616338806E0,-3.709585876E0,-6.730004883E-1,4.102012697E0
1.354991737E1,-1.208137665E0,-3.402424622E0,-8.701405334E-1,3.713924403E0
1.355989838E1,-9.726773071E-1,-3.432961121E0,-1.124162292E0,3.740997736E0
1.356988037E1,-7.671546936E-1,-3.715124359E0,-1.478026428E0,4.071269759E0
1.357986238E1,-4.984634399E-1,-4.231550446E0,-2.118095398E0,4.758236342E0
1.358984437E1,-1.474433899E-1,-5.280718689E0,-3.758683777E0,6.483473850E0
1.359982638E1,1.445394287E0,-8.055049438E0,-7.594307556E0,1.116451940E1
1.360980738E1,4.677024078E0,-1.278805710E1,-1.365280884E1,1.928232734E1
1.361978937E1,1.021745270E1,-1.972014175E1,-1.961356339E1,2.963059566E1
1.362977138E1,1.506856476E1,-2.658247147E1,-1.739472748E1,3.516057419E1
1.363975337E1,1.669089111E1,-3.222304184E1,-8.616681519E0,3.729822344E1
1.364973538E1,1.540102341E1,-3.092928223E1,-4.684209137E0,3.486766176E1
1.365971637E1,1.208002945E1,-2.318603439E1,-3.307821350E0,2.635262766E1
1.366969838E1,8.858428802E0,-1.582584000E1,-1.162033539E0,1.817358782E1
1.367968037E1,6.008954315E0,-1.054811508E1,3.938310242E-1,1.214600208E1
1.368966237E1,2.811154175E0,-8.972790985E0,8.340655518E-1,9.439768599E0
1.369964438E1,7.771838379E-1,-1.059421921E1,9.741741943E-1,1.066726351E1
1.370962637E1,1.170565796E-1,-1.215637070E1,3.989204407E-1,1.216347764E1
1.371960738E1,-1.476529541E0,-1.267189865E1,-3.256627808E0,1.316673003E1
1.372958937E1,-3.917802887E0,-1.160042679E1,-7.150181122E0,1.417900459E1
1.373957138E1,-3.440445557E0,-1.112696136E1,-1.016236725E0,1.169096540E1
1.374955337E1,-2.303859100E0,-9.889784088E0,2.781964874E0,1.052876653E1
1.375953538E1,-1.724863129E0,-6.350543976E0,3.082240448E0,7.266688915E0
1.376951638E1,-1.223106537E0,-4.167034607E0,4.035009155E0,5.928023777E0
1.377949837E1,-1.104104004E0,-2.596201172E0,4.893623657E0,5.648615642E0
1.378948038E1,-1.283131714E0,-1.435664520E0,5.380261688E0,5.714435707E0
1.379946237E1,-1.606309662E0,-6.976991272E-1,6.495143280E0,6.727101979E0
1.380944438E1,-2.056723022E0,-7.334747314E-1,7.954907684E0,8.249160626E0
1.381942537E1,-2.883753204E0,-2.427501984E0,8.612041168E0,9.400853765E0
1.382940738E1,-2.791844330E0,-6.381080475E0,7.551646271E0,1.027326356E1
1.383938938E1,-1.825004883E0,-1.053299652E1,4.675976257E0,1.166787952E1
1.384937137E1,-1.522783356E0,-1.341300751E1,2.896626434E0,1.380645082E1
1.385935338E1,-1.436862030E0,-1.511077698E1,1.829645233E0,1.528881143E1
1.386933437E1,-1.273551636E0,-1.557376419E1,1.208137665E0,1.567238531E1
1.387931638E1,-1.421743469E0,-1.461949860E1,1.277742920E0,1.474393844E1
1.388929837E1,-1.374890900E0,-1.224094482E1,1.641336823E0,1.242678727E1
1.389928100E1,-1.260079651E0,-9.806557159E0,1.539249115E0,1.000628062E1
1.390926300E1,-9.285191345E-1,-8.367749176E0,1.395398254E0,8.533962171E0
1.391924400E1,-3.844006348E-1,-7.682474213E0,1.114282837E0,7.772374162E0
1.392922600E1,2.263293457E-1,-7.528444519E0,6.879693604E-1,7.563200625E0
1.393920800E1,1.076561279E0,-7.781268768E0,3.285667419E-1,7.862256924E0
1.394919000E1,1.963317261E0,-8.416996765E0,5.572911072E-1,8.660890404E0
1.395917200E1,2.669698334E0,-9.009015656E0,5.745053101E-1,9.413804153E0
1.396915400E1,3.210823059E0,-9.864486694E0,1.652713165E0,1.050471053E1
1.397913500E1,3.546574860E0,-1.073762100E1,3.291056213E0,1.177734049E1
1.398911700E1,3.788172455E0,-1.115016312E1,4.305796051E0,1.253859114E1
1.399909900E1,3.933071136E0,-1.093521011E1,4.414320374E0,1.243117425E1
1.400908100E1,3.903881836E0,-1.017419266E1,3.062631226E0,1.131963779E1
1.401906300E1,3.944597168E0,-9.470655670E0,6.020480347E-1,1.027694641E1
1.402904400E1,5.518274689E0,-9.531129913E0,-1.038255936E1,1.513576334E1
1.403902600E1,6.704857178E0,-9.549391937E0,-1.307905197E1,1.752733855E1
1.404900800E1,4.363575897E0,-8.973539429E0,9.074130249E-1,1.001941130E1
1.405899000E1,3.359164581E0,-9.149124298E0,4.308041382E0,1.065596934E1
1.406897200E1,2.962190094E0,-8.940158844E0,3.824546814E0,1.016504642E1
1.407895300E1,2.187850342E0,-8.963659973E0,2.470013580E0,9.551693898E0
1.408893500E1,1.488654327E0,-9.239985352E0,1.365011444E0,9.458154008E0
1.409891700E1,9.297166443E-1,-9.480385437E0,4.926255798E-1,9.538593242E0
1.410889900E1,5.228627014E-1,-9.704768829E0,-3.028202820E-1,9.723560231E0
1.411888100E1,2.338137817E-1,-1.002435425E1,-9.366023254E-1,1.007072842E1
1.412886200E1,3.742218018E-2,-1.045366150E1,-1.285975800E0,1.053252927E1
1.413884400E1,-1.297801208E-1,-1.084913910E1,-1.121318207E0,1.090770446E1
1.414882600E1,-5.358856201E-2,-1.080677719E1,-1.694476318E-1,1.080823841E1
1.415880800E1,3.165916443E-1,-1.026774811E1,1.408720551E0,1.036876922E1
1.416879000E1,9.933343506E-1,-9.840835876E0,2.740650787E0,1.026352428E1
1.417877100E1,1.776655426E0,-9.876761169E0,3.642225952E0,1.067580093E1
1.418875300E1,2.599045258E0,-1.030172745E1,4.074826355E0,1.137914032E1
1.419873500E1,3.415297852E0,-1.078701828E1,4.132606201E0,1.204584811E1
1.420871700E1,4.006119232E0,-1.112935638E1,3.722010040E0,1.240019853E1
1.421869900E1,4.385280762E0,-1.139655075E1,3.024161224E0,1.258004799E1
1.422868000E1,4.700824585E0,-1.191028244E1,2.691852264E0,1.308429013E1
1.423866200E1,5.103487244E0,-1.280003220E1,2.595602417E0,1.402225225E1
1.424864400E1,5.730533295E0,-1.388228165E1,1.920805664E0,1.514088009E1
1.425862600E1,6.551725616E0,-1.461036758E1,1.260379028E-1,1.601261487E1
1.426860800E1,8.292006683E0,-1.470452179E1,-1.495869324E1,2.255532840E1
1.427858900E1,7.464826813E0,-1.340552307E1,-1.812640594E1,2.374864797E1
1.428857100E1,3.952979736E0,-1.174637329E1,9.473799133E-1,1.242983761E1
1.429855300E1,2.967429199E0,-1.116453323E1,6.052513733E0,1.304167784E1
1.430853500E1,2.356848907E0,-1.079884369E1,5.157973938E0,1.219731351E1
1.431851700E1,1.374741211E0,-1.142274628E1,1.193917236E0,1.156695657E1
1.432849800E1,6.324348450E-1,-1.330732727E1,-1.908980255E0,1.345842259E1
1.433848000E1,6.635700989E-1,-1.541090286E1,2.154020691E-1,1.542668631E1
1.434846200E1,7.161108398E-1,-1.696063019E1,2.449805603E0,1.715159872E1
1.435844400E1,5.887257385E-1,-1.790277100E1,3.624263306E0,1.827542316E1
1.436842600E1,1.249900818E-1,-1.830663116E1,3.684737549E0,1.867419765E1
1.437840700E1,-2.920426941E-1,-1.874761414E1,2.568957825E0,1.892505929E1
1.438838900E1,-8.999285889E-1,-1.849449051E1,1.743125153E0,1.859824013E1
1.439837100E1,-1.285526733E0,-1.715133362E1,2.165696411E0,1.733525497E1
1.440835300E1,-8.488847351E-1,-1.431652863E1,2.365081787E0,1.453537784E1
1.441833500E1,4.995112610E-1,-1.125644211E1,8.036787415E-1,1.129614536E1
1.442831600E1,2.200424194E0,-9.209897919E0,-9.505233765E-1,9.516700111E0
1.443829800E1,3.071762238E0,-7.940088501E0,-1.878593445E-1,8.515633845E0
1.444828000E1,2.676733704E0,-6.599476318E0,1.376687164E0,7.253499745E0
1.445826200E1,1.969454498E0,-5.815855865E0,2.010020142E0,6.460890917E0
1.446824400E1,1.352437592E0,-5.536836090E0,1.717079315E0,5.952646697E0
1.447822500E1,8.596623230E-1,-5.492677917E0,9.851014709E-1,5.646145138E0
1.448820700E1,3.656895447E-1,-5.644761658E0,4.854405212E-1,5.677386328E0
1.449818900E1,-9.385482788E-2,-5.995182953E0,2.847079468E-1,6.002673236E0
1.450817100E1,-5.451663208E-1,-6.401887207E0,-7.679031372E-2,6.425516546E0
1.451815300E1,-8.881031799E-1,-6.582112427E0,-4.617897034E-1,6.657790999E0
1.452813400E1,-1.246757355E0,-6.626270599E0,-5.313949585E-1,6.763449309E0
1.453811600E1,-1.601519623E0,-6.534212036E0,-2.724334717E-1,6.733127953E0
1.454809800E1,-1.997446289E0,-6.419251099E0,3.198847961E-1,6.730445946E0
1.455808000E1,-2.309996338E0,-6.357579346E0,1.173110504E0,6.865208407E0
1.456806100E1,-2.581980743E0,-6.316265259E0,1.800306244E0,7.057119380E0
1.457804300E1,-2.890489197E0,-6.166576538E0,1.921703796E0,7.076336586E0
1.458802500E1,-3.087928619E0,-5.899831238E0,1.581611023E0,6.844326499E0
1.459800700E1,-2.983745270E0,-5.697302399E0,1.061442719E0,6.518331926E0
1.460798900E1,-2.591560822E0,-5.442083130E0,4.951702881E-1,6.047945924E0
1.461797000E1,-2.065704346E0,-5.034331055E0,2.754272461E-2,5.441726033E0
1.462795200E1,-1.568887482E0,-4.619992676E0,-2.504292297E-1,4.885535288E0
1.463793400E1,-1.229842529E0,-4.206851807E0,-4.899311829E-1,4.410232118E0
1.464791600E1,-1.020727386E0,-3.942800903E0,-7.119195557E-1,4.134536590E0
1.465789800E1,-8.762777710E-1,-4.008514252E0,-8.226892090E-1,4.184837724E0
1.466787900E1,-7.996371460E-1,-4.285887451E0,-1.020128632E0,4.477601281E0
1.467786100E1,-8.378077698E-1,-4.578678589E0,-1.781445465E0,4.983950985E0
1.468784300E1,-8.232879639E-1,-5.104834442E0,-3.014581146E0,5.985385304E0
1.469782500E1,4.037104797E-1,-7.074139252E0,-5.795647888E0,9.154013478E0
1.470780700E1,3.517385559E0,-1.137963593E1,-1.185774170E1,1.680696740E1
1.471778800E1,8.256979523E0,-1.785247559E1,-1.777793060E1,2.651308002E1
1.472777000E1,1.283416122E1,-2.464579880E1,-1.872501114E1,3.350756832E1
1.473775200E1,1.476724136E1,-2.945335144E1,-1.319940170E1,3.549359849E1
1.474773400E1,1.371597748E1,-2.929019073E1,-8.431067505E0,3.342343804E1
1.475771600E1,1.075199112E1,-2.380110535E1,-5.359754333E0,2.666129958E1
1.476769700E1,7.645052032E0,-1.959036163E1,-1.349593506E0,2.107250560E1
1.477767900E1,4.746779022E0,-1.793360687E1,2.098635864E-1,1.855236398E1
1.478766100E1,2.277663574E0,-1.660062881E1,-2.875520325E-1,1.675861911E1
1.479764300E1,-3.637435913E-2,-1.449570602E1,-1.323697357E0,1.455606372E1
1.480762500E1,-1.530567169E0,-1.337917786E1,-3.137176208E0,1.382703549E1
1.481760600E1,-3.379073181E0,-1.124626328E1,-7.795189819E0,1.409473510E1
1.482758800E1,-4.992418213E0,-8.437504120E0,-9.855205994E0,1.390110789E1
1.483757000E1,-4.143234100E0,-7.862400055E0,-3.193758545E0,9.443718393E0
1.484755200E1,-2.867137756E0,-7.948620758E0,4.014202423E0,9.354938373E0
1.485753300E1,-2.013163605E0,-6.281088409E0,6.081253967E0,8.971429603E0
1.486751500E1,-1.534608765E0,-3.956272888E0,4.853207703E0,6.446762306E0
1.487749700E1,-1.277293854E0,-2.481838989E0,4.223317566E0,5.062352775E0
1.488747900E1,-1.182690582E0,-1.294358368E0,4.595743103E0,4.918838813E0
1.489745658E1,-1.559008026E0,-1.930984497E-2,5.957760773E0,6.158392024E0
1.490743758E1,-2.000739441E0,4.707710266E-1,8.588839417E0,8.831350191E0
1.491741958E1,-2.189796295E0,-1.463356934E0,1.047476761E1,1.080080450E1
1.492740158E1,-2.029329987E0,-5.758824463E0,9.327104187E0,1.114796447E1
1.493738358E1,-1.426683197E0,-9.649533691E0,6.207591248E0,1.156214143E1
1.494736558E1,-7.905061340E-1,-1.255035141E1,3.344944153E0,1.301248907E1
1.495734658E1,-2.092648315E-1,-1.461336136E1,2.009870453E0,1.475241340E1
1.496732858E1,1.556762695E-2,-1.556553131E1,1.329535217E0,1.562221723E1
1.497731058E1,-3.384461975E-1,-1.520702682E1,1.538949738E0,1.528844587E1
1.498729258E1,-2.386038208E-1,-1.374845993E1,2.276166687E0,1.393764747E1
1.499727458E1,-1.901046753E-2,-1.158126663E1,2.021396484E0,1.175636602E1
1.500725558E1,2.194436646E-1,-9.882599030E0,1.763632507E0,1.004113135E1
1.501723758E1,5.927673340E-1,-8.810977478E0,1.284927979E0,8.923885765E0
1.502721958E1,1.149309998E0,-8.085286560E0,-3.230282593E-1,8.172950476E0
1.503720158E1,1.930385742E0,-7.856113129E0,-1.775457916E0,8.282339852E0
1.504718358E1,2.837050323E0,-8.245603180E0,-1.581012268E0,8.862190820E0
1.505716458E1,3.259471893E0,-9.108109589E0,5.010081482E-1,9.686734562E0
1.506714658E1,3.664529572E0,-1.004396347E1,2.634820862E0,1.101146040E1
1.507712858E1,4.258195038E0,-1.073372910E1,4.154909821E0,1.227226307E1
1.508711058E1,4.756209412E0,-1.109657455E1,4.873116302E0,1.301932246E1
1.509709158E1,5.068160706E0,-1.096709381E1,4.561165009E0,1.291385403E1
1.510707358E1,5.340145111E0,-1.029588959E1,3.132685547E0,1.201400062E1
1.511705558E1,5.622158661E0,-9.524693298E0,-3.697311401E-2,1.106028107E1
1.512703758E1,7.597900085E0,-9.351503448E0,-1.699326233E1,2.083145859E1
1.513701958E1,6.374344482E0,-8.524622955E0,-8.036338348E0,1.333732350E1
1.514700058E1,3.950285339E0,-8.234376526E0,3.754791870E0,9.874622677E0
1.515698258E1,3.380121002E0,-8.487051086E0,4.786596222E0,1.031342608E1
1.516696458E1,2.939736786E0,-8.665030975E0,4.009262695E0,9.989945022E0
1.517694658E1,2.223027191E0,-8.612490234E0,2.167792053E0,9.155116619E0
1.518692758E1,1.621577911E0,-8.621022491E0,8.758287048E-1,8.815816448E0
1.519690958E1,1.370250549E0,-8.889564056E0,8.199948120E-1,9.031850706E0
1.520689158E1,1.171613617E0,-9.065597992E0,3.969744873E-1,9.149608416E0
1.521687358E1,9.174421692E-1,-9.258397064E0,-4.450245667E-1,9.314379378E0
1.522685558E1,7.384144592E-1,-9.564660187E0,-1.088686066E0,9.654699257E0
1.523683658E1,6.635700989E-1,-9.893675995E0,-1.423090668E0,1.001750154E1
1.524681858E1,5.947132874E-1,-1.035845947E1,-1.388063507E0,1.046795524E1
1.525680058E1,5.918692017E-1,-1.065005310E1,-8.599617004E-1,1.070109687E1
1.526678258E1,8.096662903E-1,-1.065544189E1,2.634521484E-1,1.068940637E1
1.527676458E1,1.201701050E0,-1.056981995E1,1.780996399E0,1.078596900E1
1.528674558E1,1.663939819E0,-1.052117111E1,3.262315979E0,1.114030712E1
1.529672758E1,2.188598785E0,-1.060709244E1,4.135899353E0,1.159336181E1
1.530670958E1,2.734064484E0,-1.075842773E1,4.522545319E0,1.198633773E1
1.531669158E1,3.316503296E0,-1.083910995E1,4.751119995E0,1.229059152E1
1.532667258E1,3.822002106E0,-1.084539688E1,4.455784149E0,1.233224821E1
1.533665458E1,4.201313324E0,-1.107906097E1,3.655099182E0,1.239985386E1
1.534663658E1,4.715793457E0,-1.171868088E1,3.085084534E0,1.300322791E1
1.535661858E1,5.446573792E0,-1.286155426E1,2.622396698E0,1.421132325E1
1.536660058E1,6.352489929E0,-1.407253601E1,1.631157990E0,1.552581961E1
1.537658158E1,7.150031433E0,-1.462324081E1,1.326242065E-1,1.627819740E1
1.538656358E1,7.405999146E0,-1.417926407E1,-1.271905060E0,1.604737036E1
1.539654558E1,7.074887695E0,-1.294537994E1,-6.817872162E0,1.625177771E1
1.540652758E1,5.715265045E0,-1.141062149E1,-2.535981400E1,2.838990495E1
1.541650858E1,2.976260834E0,-1.136436768E1,-5.378016357E0,1.292014091E1
1.542649058E1,2.909799042E0,-1.241877502E1,6.864874420E0,1.448514426E1
1.543647258E1,2.366129608E0,-1.273177414E1,7.045848083E0,1.474247663E1
1.544645458E1,1.201551361E0,-1.261082565E1,4.799469452E0,1.354664373E1
1.545643658E1,1.827699280E-1,-1.319790482E1,8.984317017E-1,1.322971186E1
1.546641758E1,-5.737568665E-1,-1.487067627E1,-1.851799164E0,1.499651192E1
1.547639958E1,-6.236032104E-1,-1.658925247E1,-1.280587006E0,1.665028773E1
1.548638158E1,-6.523434448E-1,-1.748513947E1,-2.689906311E-1,1.749937170E1
1.549636358E1,-7.532336426E-1,-1.758034149E1,8.259823608E-1,1.761584556E1
1.550634458E1,-1.020577698E0,-1.694790665E1,1.112486572E0,1.701501528E1
1.551632658E1,-1.571282501E0,-1.583242630E1,1.011596375E0,1.594233291E1
1.552630858E1,-1.548679504E0,-1.370310425E1,1.441203003E0,1.386544411E1
1.553629058E1,-5.777984619E-1,-1.129536118E1,1.969903564E0,1.148039874E1
1.554627258E1,5.245092773E-1,-9.401798859E0,2.211800537E0,9.672693181E0
1.555625358E1,1.293160858E0,-8.063881073E0,2.001787262E0,8.408661915E0
1.556623558E1,1.553768921E0,-7.043153687E0,1.819616089E0,7.438495441E0
1.557621758E1,1.543440399E0,-6.221512299E0,1.550924835E0,6.595058104E0
1.558619958E1,1.501228180E0,-5.704936523E0,9.147477722E-1,5.969652441E0
1.559618158E1,1.594484253E0,-5.547164612E0,2.074685669E-1,5.775505040E0
1.560616258E1,1.518292694E0,-5.665867767E0,-3.908372498E-1,5.878777425E0
1.561614458E1,1.168769531E0,-6.151457977E0,-6.846762085E-1,6.298828381E0
1.562612658E1,7.536827087E-1,-6.722370758E0,-4.501139832E-1,6.779447531E0
1.563610858E1,3.882925415E-1,-7.221732330E0,-3.742218018E-2,7.232260322E0
1.564608958E1,-4.340972900E-2,-7.777676239E0,4.236190796E-2,7.777912742E0
1.565607158E1,-5.592370605E-1,-8.051307220E0,-1.287322998E-2,8.070716187E0
1.566605358E1,-1.081051941E0,-8.039781189E0,1.073268127E-1,8.112846227E0
1.567603558E1,-1.591191101E0,-7.762108612E0,5.477110291E-1,7.942430774E0
1.568601758E1,-2.116598511E0,-7.233408051E0,7.761360168E-1,7.576580257E0
1.569599858E1,-2.514620819E0,-6.559210052E0,8.057743835E-1,7.070772711E0
1.570598058E1,-2.731819153E0,-5.864953766E0,6.855743408E-1,6.506191723E0
1.571596258E1,-2.753973083E0,-5.313949585E0,4.023632813E-1,5.998693537E0
1.572594458E1,-2.577939148E0,-4.851860504E0,2.529739380E-2,5.494266153E0
1.573592558E1,-2.186652832E0,-4.436324615E0,-3.833528137E-1,4.960784825E0
1.574590758E1,-1.712139587E0,-4.022285614E0,-3.640429688E-1,4.386653714E0
1.575588958E1,-1.280437317E0,-3.572471008E0,-2.418969727E-1,3.802707322E0
1.576587158E1,-8.229885864E-1,-3.237617340E0,-1.977388000E-1,3.346427481E0
1.577585358E1,-5.581892395E-1,-3.215613098E0,-4.351451111E-1,3.292581676E0
1.578583458E1,-4.221221924E-1,-3.532504120E0,-1.027762756E0,3.703116091E0
1.579581658E1,-4.471202087E-1,-3.951183472E0,-2.114802246E0,4.503793495E0
1.580579858E1,-5.456153870E-1,-4.669240265E0,-4.197720795E0,6.302409117E0
1.581578058E1,7.411088562E-1,-6.924600220E0,-8.288863220E0,1.082610660E1
1.582576158E1,4.308041382E0,-1.141810593E1,-1.420755524E1,1.872930830E1
1.583574358E1,9.732311554E0,-1.789723251E1,-1.846081055E1,2.749236887E1
1.584572558E1,1.501886810E1,-2.522674072E1,-1.592523331E1,3.340011830E1
1.585570758E1,1.771970169E1,-3.085488693E1,-7.696395264E0,3.640393352E1
1.586568858E1,1.637220383E1,-2.946876938E1,-4.586163025E0,3.402190938E1
1.587567058E1,1.263297958E1,-2.221994339E1,-3.804787903E0,2.584171953E1
1.588565258E1,9.934840393E0,-1.719459366E1,-1.705702972E0,1.993149586E1
1.589563458E1,7.264692993E0,-1.416369644E1,-9.340576172E-2,1.591837887E1
1.590561633E1,3.873195648E0,-1.338082443E1,1.270707550E0,1.398795213E1
1.591559733E1,1.623224487E0,-1.383348312E1,1.311123505E0,1.398996633E1
1.592557933E1,5.113366699E-1,-1.404604111E1,-2.600093079E-1,1.405775020E1
1.593556133E1,-8.387059021E-1,-1.352437592E1,-1.729952545E0,1.366034067E1
1.594554333E1,-3.538641357E0,-1.099837875E1,-6.987319794E0,1.350218337E1
1.595552433E1,-4.219575348E0,-9.210346985E0,-3.820505219E0,1.082735276E1
1.596550633E1,-3.258124695E0,-8.206235046E0,1.501677246E0,8.956154572E0
1.597548833E1,-2.690205688E0,-5.542075195E0,2.741698608E0,6.743049412E0
1.598547033E1,-2.245630188E0,-3.477867737E0,3.763922882E0,5.595134887E0
1.599545233E1,-2.174677734E0,-2.181713104E0,4.646786957E0,5.575098595E0
1.600543333E1,-2.361040192E0,-1.657203827E0,4.824617157E0,5.621189022E0
1.601541533E1,-2.380350037E0,-1.540296936E0,5.426814880E0,6.122818035E0
1.602539733E1,-3.046165466E0,-1.403780823E0,7.575895844E0,8.285162791E0
1.603537933E1,-4.152065735E0,-2.143692169E0,9.577084351E0,1.065624749E1
1.604536033E1,-4.000880127E0,-5.027445374E0,9.688303070E0,1.162520818E1
1.605534233E1,-3.225941620E0,-8.660091248E0,6.798861694E0,1.147294209E1
1.606532433E1,-2.849175110E0,-1.167646866E1,3.775448914E0,1.259808452E1
1.607530633E1,-2.255809021E0,-1.398616562E1,2.502945099E0,1.438632118E1
1.608528733E1,-1.666484528E0,-1.515478546E1,2.276765442E0,1.541519880E1
1.609526933E1,-1.534608765E0,-1.496423172E1,2.389181671E0,1.523126535E1
1.610525133E1,-1.399739227E0,-1.306782532E1,2.201771393E0,1.332573171E1
1.611523333E1,-1.228345642E0,-1.088626190E1,1.791474609E0,1.110085188E1
1.612521433E1,-1.021475830E0,-9.264534302E0,1.288071442E0,9.409258033E0
1.613519633E1,-6.767427063E-1,-8.328231354E0,6.439608765E-1,8.380459640E0
1.614517833E1,-1.552272034E-1,-7.951165466E0,-1.947450256E-1,7.955064637E0
1.615516033E1,6.253994751E-1,-8.003556519E0,-9.018745422E-1,8.078454007E0
1.616514233E1,1.478774872E0,-8.553063812E0,-1.866618347E-1,8.681965120E0
1.617512333E1,2.341580658E0,-9.305998077E0,6.539900208E-1,9.618331619E0
1.618510533E1,3.085084534E0,-1.020383102E1,1.942211151E0,1.083550176E1
1.619508733E1,3.897594910E0,-1.098460739E1,3.115770721E0,1.206486108E1
1.620506933E1,4.666545868E0,-1.159952866E1,3.882775726E0,1.309204578E1
1.621505033E1,5.266797638E0,-1.195309341E1,4.170926514E0,1.371175509E1
1.622503233E1,5.798941040E0,-1.191956314E1,3.762276306E0,1.377891235E1
1.623501433E1,8.192313995E0,-1.213002548E1,-7.471712494E0,1.643405046E1
1.624499633E1,1.058194473E1,-1.146525787E1,-1.560534851E1,2.206709302E1
1.625497733E1,6.944059753E0,-8.933123474E0,6.032455444E-1,1.133069133E1
1.626495933E1,5.587131500E0,-7.362140350E0,4.132306824E0,1.012388802E1
1.627494133E1,5.176685028E0,-6.204896851E0,4.155059509E0,9.086436724E0
1.628492333E1,4.625231781E0,-5.814059601E0,4.159400482E0,8.514497662E0
1.629490533E1,3.801195374E0,-6.714586945E0,3.097658386E0,8.314460390E0
1.630488633E1,2.976410522E0,-8.377628632E0,1.756597137E0,9.062522529E0
1.631486833E1,2.568808136E0,-9.313183136E0,1.058598633E0,9.718785234E0
1.632485033E1,2.325414276E0,-9.767189026E0,3.403921509E-1,1.004596436E1
1.633483233E1,2.091301117E0,-1.011686188E1,-6.598278809E-1,1.035180213E1
1.634481333E1,1.817819824E0,-1.027418472E1,-1.466949463E0,1.053637895E1
1.635479533E1,1.628762970E0,-1.009231293E1,-1.498384094E0,1.033212485E1
1.636477733E1,1.622775421E0,-9.779313812E0,-8.174501038E-1,9.946688061E0
1.637475933E1,1.822609863E0,-9.720635834E0,1.362167358E-1,9.890966723E0
1.638474033E1,2.230062561E0,-9.929002533E0,1.120719452E0,1.023788467E1
1.639472233E1,2.914289703E0,-1.002031265E1,1.992057495E0,1.062393727E1
1.640470433E1,3.591930542E0,-9.975555725E0,2.537523193E0,1.090195859E1
1.641468633E1,4.060905304E0,-1.013617172E1,2.663710785E0,1.123958559E1
1.642466733E1,4.537663879E0,-1.049467621E1,2.809208221E0,1.177371110E1
1.643464933E1,5.291346588E0,-1.133802246E1,3.360511780E0,1.295539044E1
1.644463133E1,6.263574829E0,-1.272893005E1,3.778891754E0,1.468121428E1
1.645461333E1,7.140151978E0,-1.392254791E1,3.279979248E0,1.598678750E1
1.646459533E1,7.692203979E0,-1.428000458E1,1.905238037E0,1.633151753E1
1.647457633E1,7.855514374E0,-1.382330429E1,-9.794132996E-1,1.592959817E1
1.648455833E1,7.389084320E0,-1.305240738E1,-1.567195999E1,2.169272310E1
1.649454033E1,4.782105560E0,-1.311617477E1,-8.729995880E0,1.646558236E1
1.650452233E1,4.282594299E0,-1.432970123E1,2.941982117E0,1.524257885E1
1.651450333E1,3.866759033E0,-1.560100754E1,4.407285004E0,1.666635601E1
1.652448533E1,3.056643677E0,-1.679223038E1,3.374133453E0,1.739847258E1
1.653446733E1,2.300865326E0,-1.802581512E1,1.704954529E0,1.825187284E1
1.654444933E1,1.337019653E0,-1.930520462E1,3.499722290E-1,1.935461257E1
1.655443033E1,-1.152603149E-1,-2.027339127E1,-2.962339783E-1,2.027588304E1
1.656441233E1,-1.239123230E0,-2.091016708E1,-1.412163391E0,2.099439733E1
1.657439433E1,-2.384990387E0,-2.014929932E1,-2.279908905E0,2.041764988E1
1.658437633E1,-3.528612213E0,-1.746687744E1,-1.798060913E0,1.791021872E1
1.659435733E1,-3.225193176E0,-1.370894211E1,9.000782776E-1,1.411194904E1
1.660433933E1,-1.863474884E0,-1.093101883E1,3.605701904E0,1.166022288E1
1.661432133E1,-6.643185425E-1,-8.979976044E0,4.584366760E0,1.010434102E1
