Time (s),Acceleration x (m/s^2),Acceleration y (m/s^2),Acceleration z (m/s^2),Absolute acceleration (m/s^2),label
0.03427545833,-1.546434174,4.637506256,8.807085571,10.07286847,0.0
0.04425745834,-1.963916016,4.690046997,9.038803711,10.37079937,0.0
0.05423945833,-2.509980469,4.693489838,9.112899628,10.55337806,0.0
0.06422145833,-2.909649353,5.222340088,7.571255493,9.646906504,0.0
0.07420445833,-2.736459503,5.192102966,8.295299835,10.16160141,0.0
0.08418645833,-2.282902679,4.597838745,9.070687408,10.4225302,0.0
0.09416845833,-1.931283875,4.087998962,9.125922546,10.18450074,0.0
0.1041504583,-1.74462204,3.890409851,9.2366922,10.17327271,0.0
0.1141324583,-1.692081299,3.848347321,9.441915436,10.33550595,0.0
0.1241144583,-1.68369873,3.831881561,9.830058289,10.68401627,0.0
0.1340974583,-1.865869904,3.844006348,10.35337006,11.20045208,0.0
0.1440794583,-2.210004272,3.798201599,11.08115662,11.92067474,0.0
0.1540614583,-2.116897888,3.534001007,11.45462997,12.17287836,0.0
0.1640434583,-1.841320953,2.772384796,10.40635986,10.92560781,0.0
0.1740254583,-0.3649411011,1.854194183,10.97487762,11.13638886,0.0
0.1840074583,1.360371094,1.475781097,13.6745137,13.82102979,0.0
0.1939904583,1.202000427,2.086511078,15.16062332,15.3506623,0.0
0.2039724583,1.285826111,1.805245972,13.70759491,13.88561918,0.0
0.2139544583,1.418600006,1.165775757,12.14933533,12.28730271,0.0
0.2239364583,0.7518864441,1.433269501,11.1862381,11.30272168,0.0
0.2339184583,1.855691071,1.198557587,10.49302963,10.72304996,0.0
0.2439014583,2.585423584,0.712817688,9.970017242,10.32442579,0.0
0.2538834583,2.385888519,0.1249900818,10.28675858,10.56056289,0.0
0.2638654583,2.167492676,-0.6906637573,9.957144012,10.21370441,0.0
0.2738474583,1.375789032,-1.01324295,9.374256134,9.528700583,0.0
0.2838294583,-0.03667373657,-1.216370544,9.006021881,9.087867318,0.0
0.2938114583,-1.627266083,-1.352736969,9.286837921,9.524875368,0.0
0.3037944583,-2.419119415,-0.8631051636,10.03123993,10.35484736,0.0
0.3137764583,-2.393522644,0.2847079468,10.47821045,10.75187907,0.0
0.3237584583,-2.179318085,0.9508227539,10.06357269,10.3406473,0.0
0.3337404583,-1.835034027,0.9181906128,9.250463562,9.475310021,0.0
0.3437224583,-1.462309113,0.9997709656,8.722062378,8.90012708,0.0
0.3537044583,-1.350491638,1.037642212,8.210126953,8.384909875,0.0
0.3636874583,-1.199904785,0.9927355957,7.616461487,7.774045346,0.0
0.3736694583,-1.020877075,1.070424042,7.618557129,7.760825366,0.0
0.3836514583,-1.049018555,1.102906494,7.619754639,7.770296224,0.0
0.3936334583,-0.9189390564,1.166823578,7.198530579,7.350154335,0.0
0.4036154583,0.4013154602,1.066981201,7.373367004,7.460968031,0.0
0.4135974583,1.485510864,0.963097229,7.374115448,7.583658579,0.0
0.4235804583,1.902843018,1.235231323,6.837331696,7.203867898,0.0
0.4335624583,2.30625412,1.400936737,7.38085144,7.858651271,0.0
0.4435444583,2.930007019,1.653760986,8.094417572,8.765812134,0.0
0.4535264583,1.602866821,1.470392303,8.007448425,8.297618083,0.0
0.4635084583,1.192719727,1.292412415,6.818321228,7.041478152,0.0
0.4734904583,1.448388062,1.535357208,6.894812164,7.210657703,0.0
0.4834734583,1.499282227,1.817670135,7.338339844,7.707334402,0.0
0.4934554583,1.817221069,1.57607254,7.527845764,7.902832335,0.0
0.5034374583,2.261646881,1.220861206,7.723638611,8.140033298,0.0
0.5134194583,2.473755798,0.8921447754,7.630681915,8.071102561,0.0
0.5234014583,2.260898438,0.687071228,7.050488434,7.435934089,0.0
0.5333834583,2.00088913,0.4942721558,6.530769196,6.848270479,0.0
0.5433654583,2.152074738,0.3035687256,6.106251984,6.48150391,0.0
0.5533484583,2.424657898,0.3141966248,5.647605743,6.154115377,0.0
0.5633304583,2.527194672,0.6810836792,5.054389343,5.691874869,0.0
0.5733124583,2.304607544,1.176403656,4.421355743,5.122843752,0.0
0.5832944583,2.093396759,1.379980316,4.167932739,4.863981803,0.0
0.5932764583,1.960772552,1.287622375,3.927382965,4.574596959,0.0
0.6032584583,2.154769135,0.746048584,3.632945251,4.289278461,0.0
0.6132414583,2.295626221,0.07409591675,3.735631714,4.385240501,0.0
0.6232234583,2.686164093,-0.463585968,3.501518555,4.437456667,0.0
0.6332054583,3.529360657,-0.9780661011,3.513343964,5.075094654,0.0
0.6431874583,4.251159668,-1.164129181,3.239862671,5.470307615,0.0
0.6531694583,4.518803101,-1.443148956,3.422931976,5.849677229,0.0
0.6631514583,5.118755493,-2.031575317,3.518732758,6.535322202,0.0
0.6731344583,5.600902863,-2.285746765,3.442092133,6.960082571,0.0
0.6831164583,5.741011505,-2.240840149,3.343746643,7.011506207,0.0
0.6930984583,6.315965881,-3.433260498,3.329077148,7.922212906,0.0
0.7030804583,6.917265472,-4.716392212,3.585942993,9.1077936,0.0
0.7130624583,7.472760315,-5.182373199,3.503464508,9.745429814,0.0
0.7230444583,8.126151581,-5.647605743,3.451672211,10.48064078,0.0
0.7330264583,8.630901947,-6.245013428,3.803889771,11.31203954,0.0
0.7430094583,9.410929871,-6.981332245,4.08829834,12.41043046,0.0
0.7529914583,10.52057236,-7.857759705,4.153862,13.77248706,0.0
0.7629734583,11.82136734,-8.762927399,4.367767181,15.34962581,0.0
0.7729554583,13.16123108,-9.37710022,4.478536835,16.76917721,0.0
0.7829374583,14.50034637,-9.720486145,4.378844147,17.99783798,0.0
0.7929194583,15.64546509,-9.636510773,4.473746796,18.91183037,0.0
0.8029014583,16.50452866,-9.034163361,4.689597931,19.3909232,0.0
0.8128844583,17.10672638,-7.994425507,5.054239655,19.54728281,0.0
0.8228664583,17.42975464,-6.640491028,5.802832947,19.5336975,0.0
0.8328484583,17.51073624,-5.127886505,6.538553009,19.38230582,0.0
0.8428304583,17.62599655,-3.539838867,7.065606995,19.31654772,0.0
0.8528124583,17.8324173,-2.440973969,7.457342377,19.48243865,0.0
0.8627944583,18.0632373,-1.653611298,7.214846649,19.52098831,0.0
0.8727774583,18.18957458,-0.8921447754,6.651867371,19.38824091,0.0
0.8827594583,18.01234314,-0.2025288391,5.869743805,18.94569649,0.0
0.892742,17.63048721,0.4067042542,4.929249573,18.31111654,0.0
0.902724,17.4833432,1.107397156,3.804638214,17.92676462,0.0
0.912706,16.76423859,2.261048126,2.067650299,17.04192512,0.0
0.922688,16.64703232,2.566562805,1.657802582,16.92510677,0.0
0.93267,16.46935181,2.829565887,0.526305542,16.71894104,0.0
0.942652,15.92179047,3.832630005,0.556842041,16.38604704,0.0
0.952635,16.21622818,4.527934113,0.8554710388,16.85823462,0.0
0.962617,16.70765625,4.90619751,-0.1986369324,17.41424727,0.0
0.972599,16.92919556,5.38355484,-0.5242098999,17.77231333,0.0
0.982581,16.80974396,5.660329285,-0.7301815796,17.75218253,0.0
0.992563,16.39555527,5.568869476,-0.6071374512,17.32614082,0.0
1.002545,15.51987625,5.517526245,-1.849553833,16.57499635,0.0
1.012527,13.93542114,5.517077179,-3.826792145,15.46862764,0.0
1.02251,11.53546188,4.649631042,-9.243278503,15.4959397,0.0
1.032492,8.647367706,3.698508911,-11.67661835,14.99331026,0.0
1.042474,9.074579315,3.118016052,-4.848717041,10.75081722,0.0
1.052456,10.1497934,0.8208929443,-3.347039795,10.71890137,0.0
1.062438,9.088949432,-1.079105988,-4.492158508,10.19573242,0.0
1.07242,7.132368164,-2.446063385,-4.319417725,8.689722158,0.0
1.082402,5.711971893,-2.910996552,-3.102598114,7.122263607,0.0
1.092385,5.614225159,-1.659449158,-1.504671021,6.044611693,0.0
1.102367,5.337151337,-2.751578064,-0.8463400269,6.064046312,0.0
1.112349,5.080135803,-3.069067841,-0.2218386841,5.939374512,0.0
1.122331,4.894372101,-2.509531403,-1.259331207,5.642565127,0.0
1.132313,4.81488739,-2.812950439,-1.303190002,5.72661636,0.0
1.142295,4.814288635,-2.122136993,-0.5858816528,5.29377916,0.0
1.152277,4.97984436,-1.521585846,-1.009500732,5.304070613,0.0
1.16226,5.446274414,-1.531914368,-2.168540497,6.058979659,0.0
1.172242,5.825735321,-3.02940033,-1.429976349,6.720215082,0.0
1.182224,5.573509827,-3.501368866,-0.7048841858,6.619702217,0.0
1.192206,4.821324005,-2.756817169,-1.596879272,5.778860569,0.0
1.202188,4.439617767,-3.382366333,-1.028660889,5.675275425,0.0
1.21217,5.297184448,-3.34180069,-0.833915863,6.318481668,0.0
1.222152,6.464906158,-2.095791779,-1.644180908,6.992187474,0.0
1.232134,7.611970825,-0.6715036011,-2.74499176,8.119605698,0.0
1.242117,8.471034393,0.6881190491,-4.859195251,9.789980082,0.0
1.252099,9.583221588,2.407743073,-6.674769745,11.92425737,0.0
1.262081,9.792935486,3.087928619,-7.204667816,12.54368873,0.0
1.272063,9.9878302,2.346370697,-6.182144165,11.97836024,0.0
1.282045,11.08519821,0.9928852844,-4.414320374,11.97303909,0.0
1.292027,13.23068665,-0.93256073,-3.32069458,13.67288379,0.0
1.302009,15.4290152,-2.637664948,-3.84610199,16.11844555,0.0
1.311991,16.56859543,-1.505419464,-4.251009979,17.17136361,0.0
1.321974,18.03704178,0.1667532349,-6.039790192,19.02213837,0.0
1.331956,19.45234863,-0.7671546936,-10.09859985,21.93089402,0.0
1.341938,19.73780502,-2.143243103,-12.92277695,23.68908192,0.0
1.35192,18.50945938,-3.145708466,-13.01423676,22.84438501,0.0
1.361902,17.20641907,-4.080364838,-8.762328644,19.73546649,0.0
1.371884,16.29436569,-5.403762817,-4.002676392,17.62749058,0.0
1.381866,15.33066971,-7.162455597,-1.428928528,16.98152056,0.0
1.391848,13.85204453,-8.638236694,-0.6261479187,16.33677851,0.0
1.401831,11.72646469,-8.743617554,-1.283431091,14.68359688,0.0
1.411813,9.491312714,-7.525750122,-1.664239197,12.22667674,0.0
1.421795,7.507039032,-5.710774384,-0.7909552002,9.46542071,0.0
1.431777,5.846242676,-4.419858856,0.159717865,7.330703618,0.0
1.441759,4.481081543,-3.826792145,0.5947132874,5.922677925,0.0
1.451741,3.226390686,-3.8764888,0.4134402466,5.060404639,0.0
1.461723,1.833387451,-4.649032288,0.5400769043,5.026578739,0.0
1.471705,1.11982132,-6.515950012,2.014959869,6.911705117,0.0
1.481688,0.6265969849,-8.093070374,3.197949829,8.724522621,0.0
1.49167,-0.2469863892,-8.888516235,3.483106842,9.549803999,0.0
1.501652,-0.4812492371,-8.912316742,3.011287994,9.419599032,0.0
1.511634,0.4131408691,-8.734935608,2.091450806,8.991326483,0.0
1.521616,1.708097992,-8.713081055,1.09871521,8.946650509,0.0
1.531598,3.945794678,-7.936795349,1.028062134,8.922943898,0.0
1.54158,6.251000977,-7.086563416,1.129401398,9.516824143,0.0
1.551562,8.220006409,-5.994883575,0.6249504089,10.193022,0.0
1.561545,9.516161041,-4.955594788,0.0260458374,10.72920869,0.0
1.571527,10.84988754,-4.473597107,-0.3176394653,11.74027366,0.0
1.581509,12.12104416,-4.480782166,-0.5029541016,12.93252037,0.0
1.591491,10.96305222,-6.383176117,-0.6861730957,12.7044986,0.0
1.601473,10.72384964,-7.022496643,-1.115480347,12.86703954,0.0
1.611455,12.50095413,-6.006559296,-1.614841919,13.96281931,0.0
1.621437,12.18765564,-5.444328461,-0.2863545227,13.35146663,0.0
1.631419,11.57662628,-4.086801453,-0.7740403748,12.30119347,0.0
1.641402,9.883497162,-2.937491455,-1.360520782,10.40016293,0.0
1.651384,8.649762726,-2.408192139,-1.156644745,9.05293387,0.0
1.661366,8.676856384,-2.556234283,-0.562230835,9.063016823,0.0
1.671348,8.066874847,-3.35347641,-0.1110690308,8.736853562,0.0
1.68133,6.955885162,-3.320245514,-0.3150947571,7.714120389,0.0
1.691312,5.661975861,-3.141217804,0.1571731567,6.476876048,0.0
1.701294,6.553521881,-3.038980408,1.003662872,7.293242772,0.0
1.711276,7.021448822,-3.610192566,0.7209008789,7.928047174,0.0
1.721258,7.138505402,-3.807781677,0.3824546814,8.099613093,0.0
1.731241,7.494914246,-3.56169342,0.2550695801,8.302075648,0.0
1.741223,8.311915283,-3.903732147,0.3320095825,9.188976587,0.0
1.751205,10.83641556,-6.555617523,1.063238983,12.70962235,0.0
1.761187,9.468260651,-8.447533264,2.76026001,12.98567724,0.0
1.771169,8.397836609,-7.045399017,1.974843292,11.13828142,0.0
1.781151,8.11567337,-5.325924683,1.570833435,9.833470682,0.0
1.791133,8.366401978,-5.08163269,0.7571255493,9.817989201,0.0
1.801115,7.344926147,-4.17841095,1.410816193,8.567231788,0.0
1.811097,6.05281311,-2.747237091,0.2344125366,6.651226009,0.0
1.82108,6.701863403,-2.057770844,-1.040037231,7.087388191,0.0
1.831062,7.76465332,-1.138831787,0.3989204407,7.857856994,0.0
1.841044,8.525371399,-2.932402039,0.06631210327,9.015838092,0.0
1.851026,9.203161926,-5.244643707,0.4857398987,10.60379273,0.0
1.861008,9.44850174,-5.345234528,1.479972382,10.95609582,0.0
1.87099,9.477541351,-5.306914215,1.351838837,10.94598542,0.0
1.880972,9.543703766,-4.63241684,0.9099577332,10.64751569,0.0
1.890956958,9.91418335,-3.879033508,0.7652087402,10.67349413,0.0
1.900938958,10.75498489,-3.879332886,1.643582153,11.55076993,0.0
1.910921958,11.34475845,-3.8273909,0.7897576904,11.99900757,0.0
1.920903958,11.86537582,-3.855831757,0.5195695496,12.48697459,0.0
1.930885958,12.23869949,-4.077520752,1.01324295,12.93980688,0.0
1.940867958,12.6141188,-4.660708008,1.083596649,13.49119617,0.0
1.950849958,12.79434402,-4.898563385,1.447639618,13.77631383,0.0
1.960831958,12.25666214,-4.334985352,1.07057373,13.04469214,0.0
1.970813958,11.46720383,-2.87372406,-0.2609074402,11.82468292,0.0
1.980795958,11.12980545,-2.314936066,-0.427660675,11.37604466,0.0
1.990777958,11.00331848,-2.492766266,-0.1655557251,11.2833643,0.0
2.000759958,11.62198196,-3.968397675,0.3902384949,12.28702287,0.0
2.010742958,14.04738831,-7.94023819,2.370769958,16.30941602,0.0
2.020724958,13.42588074,-10.06162674,3.486250305,17.13605986,0.0
2.030706958,11.19117783,-9.004075928,2.980003052,14.66956927,0.0
2.040688958,8.798253937,-7.003635864,1.994452515,11.42094692,0.0
2.050670958,6.974147186,-6.099366302,0.9837542725,9.317122449,0.0
2.060652958,5.646408234,-5.926026764,0.2127076721,8.188098906,0.0
2.070634958,4.845723267,-5.94638443,-1.060993652,7.743786496,0.0
2.080616958,5.22323822,-6.108946381,-1.767524414,8.229555634,0.0
2.090598958,6.274801483,-6.459966431,-2.240540771,9.280319116,0.0
2.100580958,7.169041901,-6.099965057,-3.347339172,9.990466206,0.0
2.110563958,8.605155487,-5.859564972,-4.073479156,11.17928598,0.0
2.120545958,9.387428741,-5.175936584,-4.545447693,11.6436778,0.0
2.130527958,9.365873566,-4.453538818,-4.437073059,11.28012469,0.0
2.140509958,8.759484558,-3.715872803,-3.751498718,10.22790414,0.0
2.150491958,8.411458282,-4.131109314,-2.377955017,9.668162424,0.0
2.160473958,8.031697998,-4.50368454,-0.8396040344,9.246419961,0.0
2.170455958,7.317982178,-4.468657379,-0.01526824951,8.574496781,0.0
2.180437958,6.568490753,-3.889960785,-0.2728825378,7.638804263,0.0
2.190419958,6.368656311,-3.59327774,-0.9187893677,7.369911942,0.0
2.200401958,7.231013031,-4.639601898,-1.704206085,8.758868284,0.0
2.210384958,8.954229584,-6.772366791,-1.348246307,11.30756152,0.0
2.220366958,9.53038147,-7.477250977,0.6363267517,12.13022526,0.0
2.230348958,8.224946136,-6.143823853,0.1272354126,10.26705894,0.0
2.240330958,7.172335052,-4.271068268,-1.45677063,8.473877207,0.0
2.250312958,7.31304245,-3.702700195,-1.704954529,8.372421905,0.0
2.260294958,7.525750122,-3.717669067,-1.426533508,8.514280712,0.0
2.270276958,7.196584625,-3.374432831,-1.391356659,8.069293683,0.0
2.280258958,6.721472626,-3.126697998,-1.663191376,7.597410097,0.0
2.290240958,6.689588928,-3.563639374,-1.793869629,7.788972581,0.0
2.300222958,6.662794647,-3.897145844,-1.202599182,7.811966656,0.0
2.310204958,6.570287018,-4.054019623,-1.050066376,7.791430292,0.0
2.320187958,7.076384583,-4.680167542,-0.7253915405,8.515009094,0.0
2.330169958,7.458689575,-5.130730591,-0.9238787842,9.099999922,0.0
2.340151958,7.066954193,-4.625980225,-1.027762756,8.508691491,0.0
2.350133958,6.868466949,-4.38782547,-1.599573669,8.305870605,0.0
2.360115958,6.343957672,-4.33513504,-2.40564743,8.051480257,0.0
2.370097958,5.578748932,-4.457879791,-2.609074402,7.602789035,0.0
2.380079958,5.200635223,-5.280269623,-2.883753204,7.952602502,0.0
2.390061958,5.173990631,-5.948629761,-3.849694519,8.773626558,0.0
2.400043958,5.306914215,-6.298751678,-4.324507141,9.302632595,0.0
2.410025958,5.831124115,-6.89765625,-4.967120819,10.30785911,0.0
2.420007958,6.318061523,-7.774532776,-5.320685577,11.3433221,0.0
2.429990958,6.749464417,-8.817414093,-5.804180145,12.52958772,0.0
2.439972958,7.074588318,-9.678124237,-5.620362396,13.24025536,0.0
2.449954958,7.763306122,-9.901160431,-5.601800995,13.77251154,0.0
2.459936958,9.190887451,-10.02165985,-5.880222015,14.81496167,0.0
2.469918958,9.361532593,-9.754166107,-4.396507416,14.21658631,0.0
2.479900958,10.00534378,-9.092841339,-2.913092194,13.83014005,0.0
2.489882958,9.467811584,-8.992250519,-1.728755035,13.17150787,0.0
2.499864958,9.91642868,-9.396410065,1.222208405,13.71575274,0.0
2.509846958,13.22305252,-10.37956558,2.511627045,16.99684589,0.0
2.519828958,13.21975937,-9.685009918,3.328478394,16.72244669,0.0
2.529810958,13.75744125,-8.050708466,-1.46500351,16.00710255,0.0
2.539793958,16.49165543,-5.474565582,1.810485077,17.47064461,0.0
2.549775958,18.71049133,-4.874313812,3.169209595,19.59299136,0.0
2.559757958,19.72074051,-5.291645966,3.248245239,20.67511113,0.0
2.569739958,20.13642609,-4.697381744,3.329675903,20.94344271,0.0
2.579721958,19.76759308,-3.535497894,3.788022766,20.43542507,0.0
2.589703958,17.91145294,-2.114802246,5.553900604,18.87162809,0.0
2.599685958,15.42796738,-0.5233117676,7.384593658,17.11222534,0.0
2.609667958,13.36705307,0.5797444153,8.446036377,15.82244424,0.0
2.619649958,10.60020676,1.639839935,9.752369843,14.49697126,0.0
2.629631958,8.507259064,2.627336426,10.92443253,14.09324588,0.0
2.639613958,7.175328827,3.087629242,12.33539841,14.60071409,0.0
2.649595958,6.939868469,-0.7622149658,7.15736618,9.998531725,0.0
2.659578958,5.478457489,-2.188299408,6.52088974,8.793415364,0.0
2.669560958,4.496499481,-1.059945831,7.115453339,8.483611788,0.0
2.679542958,3.460803223,-1.648072815,6.883735199,7.879029968,0.0
2.689524958,2.651585999,-2.208657074,6.858288116,7.677577109,0.0
2.699506958,1.749412079,-1.734293518,6.872059479,7.300234113,0.0
2.709488958,1.12790451,-1.688788147,6.168372803,6.494073993,0.0
2.719470958,0.8930429077,-1.748813324,5.085075531,5.451042729,0.0
2.729452958,0.7869136047,-1.557511139,4.294120331,4.635142218,0.0
2.739434958,1.648521881,-1.752256165,4.8651828,5.427525195,0.0
2.749416958,2.74379425,-2.241438904,5.421276398,6.47631786,0.0
2.759398958,3.569177856,-2.278561707,5.397924957,6.860646315,0.0
2.769380958,4.331392822,-1.945354614,5.317841492,7.129151877,0.0
2.779363958,4.653972015,-1.544937286,5.464985504,7.342503204,0.0
2.789345958,4.968917084,-1.425036621,5.565875702,7.596040988,0.0
2.799327958,5.248535614,-1.408570862,5.997727661,8.093450133,0.0
2.809309958,5.034331055,-1.225950623,6.34769989,8.193945203,0.0
2.819291958,4.816384277,-0.6012995911,6.594237213,8.18798407,0.0
2.829273958,4.73764801,0.1642085266,6.404282227,7.967879514,0.0
2.839255958,4.767735443,0.8271798706,6.080655212,7.771093591,0.0
2.849237958,5.05708374,1.123563538,5.842949524,7.808748307,0.0
2.859219958,5.257516937,1.350341949,5.782175903,7.930855307,0.0
2.869201958,5.32742157,1.48835495,5.656736755,7.911718635,0.0
2.879183958,5.170398102,1.824855194,5.462740173,7.739808991,0.0
2.889171583,4.990771637,2.301314392,4.998405762,7.428856549,0.0
2.899154583,5.547463989,1.893113251,4.474794617,7.374416679,0.0
2.909136583,7.14808548,0.282462616,5.638175354,9.108453902,0.0
2.919118583,7.869734802,-0.8554710388,7.040758667,10.59418893,0.0
2.929100583,7.978708191,-1.37249588,7.782316589,11.22978098,0.0
2.939082583,7.681875458,-1.250499573,8.638835449,11.62774431,0.0
2.949064583,6.976242828,-0.8478369141,8.79675705,11.25920628,0.0
2.959046583,6.431375885,-0.3176394653,8.862919464,10.95512812,0.0
2.969028583,6.114634552,0.1124162292,8.62236969,10.57102891,0.0
2.979010583,6.256539459,0.4586462402,7.884703674,10.07587189,0.0
2.988992583,7.106172638,0.3664379883,7.444020081,10.29783479,0.0
2.998974583,7.794141998,0.217048645,7.279362488,10.66699948,0.0
3.008956583,8.271499329,0.05792953491,7.160210266,10.94027733,0.0
3.018938583,8.409662018,-0.02409988403,7.105274506,11.00944694,0.0
3.028921583,8.410859528,-0.1814227295,7.206464081,11.07739124,0.0
3.038903583,8.165968781,0.005837860107,7.310497742,10.9602216,0.0
3.048885583,7.775879974,0.3965254211,6.953639832,10.43909233,0.0
3.058867583,7.584278412,0.4972659302,6.452032928,9.969818521,0.0
3.068849583,7.39372467,0.3138972473,6.317013702,9.729869377,0.0
3.078831583,7.274123383,0.08337661743,6.198909302,9.557525787,0.0
3.088813583,7.110812988,0.2219883728,5.688620453,9.10897046,0.0
3.098795583,7.079677734,0.2866539001,5.38819519,8.901497329,0.0
3.108777583,7.394323425,-0.1154100037,5.69835022,9.335980592,0.0
3.118759583,7.959248657,-0.4544549561,6.10430603,10.04085258,0.0
3.128741583,8.462502136,-0.3498225403,6.126459961,10.45322103,0.0
3.138723583,8.809330902,-0.4251159668,5.870941315,10.59495099,0.0
3.148705583,9.291478271,-1.257684631,6.164181519,11.2209836,0.0
3.158687583,9.378896484,-2.42091568,7.058871002,11.98549923,0.0
3.168670583,8.903036041,-2.882855072,7.96598465,12.28950022,0.0
3.178652583,7.768395538,-2.703378296,8.73942627,12.00140804,0.0
3.188634583,6.538852386,-2.054178314,8.184530182,10.67533481,0.0
3.198616583,5.485043793,-1.062939606,7.191195831,9.106527521,0.0
3.208598583,4.950056305,-0.470022583,6.300248566,8.026027077,0.0
3.218580583,5.060825958,-0.5719606018,6.079457703,7.930882944,0.0
3.228562583,5.788013763,-0.6420149231,5.993686066,8.356886929,0.0
3.238544583,7.116650848,-0.8894503784,5.784421234,9.213976899,0.0
3.248526583,8.242908783,-0.9602531433,5.875282288,10.16791883,0.0
3.258508583,9.155860291,-0.8026309204,5.749244385,10.84102417,0.0
3.268490583,9.773925018,-0.7114704895,5.485193481,11.23045627,0.0
3.278472583,9.683812408,-0.2251318359,5.492677917,11.13536788,0.0
3.288454583,9.205556946,0.3141966248,5.585484924,10.77212328,0.0
3.298436583,8.552465057,0.6732998657,5.59296936,10.2410594,0.0
3.308419583,7.817493439,0.9012757874,5.423072662,9.556946103,0.0
3.318401583,7.382498016,0.8719367981,5.301824799,9.130766503,0.0
3.328383583,6.87655014,0.7604187012,5.399870911,8.776319518,0.0
3.338365583,6.323450317,0.6352789307,5.405559082,8.34324111,0.0
3.348347583,6.27869339,-0.02903961182,5.129233704,8.107519495,0.0
3.358329583,6.694528656,-0.5575904846,5.433999939,8.640368997,0.0
3.368311583,6.734794922,-0.7595205688,5.729635162,8.87485511,0.0
3.378293583,6.432723083,-0.8412506104,6.251300354,9.009238868,0.0
3.388275583,5.596262512,-0.2803669739,6.257437592,8.399540759,0.0
3.398257583,4.989723816,0.2881507874,5.776637421,7.638711575,0.0
3.408239583,5.076842651,0.653840332,4.998854828,7.154745843,0.0
3.418221583,5.48414566,0.8872050476,4.471202087,7.131243547,0.0
3.428203583,5.952821045,0.8996292114,4.223616943,7.354206361,0.0
3.438185583,6.206244049,1.093326416,4.354145508,7.659726559,0.0
3.448168583,6.357579346,1.085991669,4.587210846,7.914587569,0.0
3.458150583,6.357279968,1.231339417,4.710554352,8.007529435,0.0
3.468132583,6.271059265,1.574276276,4.522994385,7.890627878,0.0
3.478114583,6.461613007,1.680405579,4.442012787,8.01920714,0.0
3.488096583,6.882088623,1.504371643,4.752018127,8.497526354,0.0
3.498078583,7.207511902,1.250948639,5.177433472,8.962082217,0.0
3.508060583,7.393125916,1.213227081,5.451812897,9.265662125,0.0
3.518042583,7.500003662,1.126557312,5.498964844,9.367913357,0.0
3.528024583,7.981552277,0.5671705627,5.901328125,9.942461105,0.0
3.538006583,8.377029877,0.4552033997,6.111640778,10.37949867,0.0
3.547988583,8.279732208,0.8476872253,5.611830139,10.03818592,0.0
3.557970583,8.102051697,1.158740387,5.342540131,9.773876203,0.0
3.567952583,7.866741028,0.9966275024,5.528004456,9.666318536,0.0
3.577934583,7.710016937,0.3288661194,6.440656586,10.05159546,0.0
3.587916583,7.569159851,-0.3312611389,7.560926971,10.70371578,0.0
3.597898583,7.380252686,-0.2014810181,7.521109772,10.53925123,0.0
3.607881583,7.787106628,0.1041833496,7.028334503,10.4903465,0.0
3.617863583,8.182883606,0.2701881409,6.696175232,10.57692528,0.0
3.627845583,8.708889771,0.06616241455,6.539900208,10.8912549,0.0
3.637827583,9.066047058,-0.1947450256,6.507417755,11.16143453,0.0
3.647809583,9.176816711,-0.274379425,6.147566071,11.04906411,0.0
3.657791583,9.107510834,-0.3818559265,5.566025391,10.6805059,0.0
3.667773583,9.270372162,-0.8165519714,5.569767609,10.84568432,0.0
3.677755583,9.490115204,-1.285826111,5.625451813,11.10681518,0.0
3.687737583,9.760003967,-1.554068298,5.57665329,11.34776928,0.0
3.697719583,10.00190094,-1.912273407,5.62575119,11.63373923,0.0
3.707701583,9.936037903,-2.451152802,6.030060425,11.87832598,0.0
3.717683583,9.242979126,-2.753973083,6.466852112,11.61194243,0.0
3.727665583,8.212372284,-2.732268219,6.941664734,11.0948212,0.0
3.737647583,6.80754364,-2.517015839,7.069199524,10.13171264,0.0
3.747629583,5.68547699,-2.700833588,7.259902954,9.608607681,0.0
3.757611583,4.852010193,-3.024759979,7.35869751,9.318884315,0.0
3.767594583,4.470303955,-3.855233002,7.532785492,9.570229685,0.0
3.777576583,4.478387146,-4.784201202,8.057893524,10.38624959,0.0
3.787558583,4.614603882,-5.491480408,8.311316528,10.97856587,0.0
3.797540583,4.804708557,-5.975424042,8.065078583,11.12818086,0.0
3.807522583,5.10154129,-6.341263275,7.699838104,11.20378732,0.0
3.817504583,5.4292099,-6.775809631,7.419920197,11.42117034,0.0
3.827486583,5.463039551,-6.869514771,7.233258362,11.37343663,0.0
3.837468583,5.387596436,-6.819369049,6.804549866,11.03774834,0.0
3.847450583,5.517376556,-6.942413177,6.030210114,10.72389756,0.0
3.857432583,5.901477814,-7.043153687,5.359754333,10.63768869,0.0
3.867414583,6.42374176,-7.058122559,4.926704865,10.74029669,0.0
3.877396583,7.294031982,-7.333849182,4.35384613,11.22248736,0.0
3.887370708,8.315956879,-7.743996277,4.12691803,12.08950245,0.0
3.897352708,9.004225616,-7.840844879,3.842659149,12.54276511,0.0
3.907334708,9.86269043,-7.826624451,3.132086792,12.9745397,0.0
3.917316708,10.92368408,-6.817572784,1.973196716,13.02688289,0.0
3.927298708,11.83424057,-5.174439697,0.7699987793,12.93897114,0.0
3.937280708,12.74225235,-4.054319,-0.8680448914,13.39985072,0.0
3.947263708,13.08863205,-3.256927185,-2.519859924,13.72113544,0.0
3.957245708,13.24086548,-1.557960205,-4.209845581,13.98107859,0.0
3.967227708,13.31047073,0.5366340637,-8.607550507,15.86021857,0.0
3.977209708,12.2253772,2.908152466,-13.20015015,18.22528909,0.0
3.987191708,11.28787674,3.377725983,-12.00668198,16.82217602,0.0
3.997173708,11.66883453,2.138602753,-4.844076691,12.8140704,0.0
4.007155708,11.6254248,0.2347119141,-0.8005352783,11.65531846,0.0
4.017137708,10.6633754,-1.333576813,0.137713623,10.74732371,0.0
4.027119708,9.22142395,-0.4739144897,0.629740448,9.255043363,0.0
4.037101708,7.597151642,0.4222718811,0.03188369751,7.608944945,0.0
4.047083708,6.673272858,0.8032296753,-0.8669970703,6.777125679,0.0
4.057065708,7.06964859,0.04101470947,-0.3032693481,7.076269193,0.0
4.067047708,7.830815735,-1.536405029,-0.325872345,7.986764569,0.0
4.077029708,8.409063263,-3.173849945,-1.395697632,9.095803445,0.0
4.087011708,8.581055603,-5.428611145,-1.774410095,10.30790306,0.0
4.096993708,8.94180542,-3.452121277,-1.912872162,9.774052659,0.0
4.106975708,8.04082901,-3.060535583,0.8472381592,8.645208021,0.0
4.116957708,7.379354553,-3.610491943,1.917063446,8.435974037,0.0
4.126940708,6.697223053,-4.497247925,1.203497314,8.156374274,0.0
4.136922708,7.516469421,-4.557123413,1.30109436,8.885805135,0.0
4.146904708,8.06777298,-4.169130249,0.5325924683,9.096936991,0.0
4.156886708,8.793613586,-4.035907288,-0.01287322998,9.675554416,0.0
4.166868708,8.52881424,-3.970493317,-0.2148033142,9.410187563,0.0
4.176850708,8.584797821,-2.505789185,0.05179229736,8.943177037,0.0
4.186832708,9.100774841,-1.400487671,0.3480262756,9.214477235,0.0
4.196814708,9.192534027,-1.228046265,-0.1426533508,9.275296731,0.0
4.206796708,9.733658752,-1.431922302,2.089953918,10.05795315,0.0
4.216778708,10.47342041,-2.600242767,2.914289703,11.17796413,0.0
4.226760708,11.35553604,-3.650608521,3.766916656,12.50858915,0.0
4.236742708,11.43756546,-3.807781677,2.577340393,12.3271971,0.0
4.246724708,10.84539688,-3.368894348,0.7298822021,11.38001804,0.0
4.256706708,10.26265869,-2.398312683,-0.1386117554,10.54007971,0.0
4.266688708,10.17449203,-2.172432404,-0.8250842285,10.43649916,0.0
4.276670708,10.47117508,-3.277284851,-0.8701405334,11.00650935,0.0
4.286652708,10.69974976,-3.487298126,-0.803379364,11.28234512,0.0
4.296634708,11.49070496,-3.78877121,-1.551074524,12.19823429,0.0
4.306617708,12.83790344,-4.130809937,-1.948647766,13.62617274,0.0
4.316599708,14.77981522,-4.914879456,-1.459015961,15.64377529,0.0
4.326581708,15.4462294,-5.209466858,-0.9051676941,16.32617151,0.0
4.336563708,14.64479599,-4.67328186,-0.5388793945,15.38180756,0.0
4.346545708,12.70123764,-4.285887451,-0.08158035278,13.40510814,0.0
4.356527708,10.74360855,-4.098028107,0.8885522461,11.53293042,0.0
4.366509708,9.773326263,-3.554807739,2.527494049,10.70246656,0.0
4.376491708,7.123835907,-4.724924469,2.528691559,8.914495514,0.0
4.386473708,5.540129242,-5.52276535,4.011657715,8.791323379,0.0
4.396455708,5.272785187,-5.543123016,4.630620575,8.942657508,0.0
4.406437708,5.093308411,-5.104684753,3.548221436,8.036757577,0.0
4.416419708,5.827531586,-5.468278656,1.423839111,8.117235592,0.0
4.426401708,6.804699554,-6.833888855,-0.03308120728,9.644017175,0.0
4.436383708,8.345744934,-7.839347992,-0.7839198303,11.47699289,0.0
4.446365708,10.3262764,-6.790179749,-1.905238037,12.50473739,0.0
4.456347708,9.498198395,-3.761078796,-2.57539444,10.53537579,0.0
4.466329708,8.999585266,-1.706601105,-1.873953094,9.349691037,0.0
4.476311708,8.824000397,-2.111658783,-3.502865753,9.725849798,0.0
4.486293708,9.531279602,-3.251089325,-4.953798523,11.22296719,0.0
4.496275708,10.32642609,-4.266577606,-4.8850914,12.19437896,0.0
4.506258708,10.54197784,-5.352868652,-4.794679413,12.75834826,0.0
4.516240708,10.57116714,-6.78299469,-4.697830811,13.41000396,0.0
4.526222708,10.15877472,-8.264164581,-4.885241089,13.97722077,0.0
4.536204708,8.967701569,-8.793763275,-5.071603546,13.54515066,0.0
4.546186708,7.948171692,-8.923842773,-4.883744202,12.90966152,0.0
4.556168708,6.965614929,-8.356672211,-3.854484558,11.54169888,0.0
4.566150708,5.864953766,-7.72139328,-1.939217377,9.888284022,0.0
4.576132708,4.677024078,-7.961493988,-0.06212081909,9.233839924,0.0
4.586114708,3.722309418,-8.482111359,0.5673202515,9.280283011,0.0
4.596096708,3.42712326,-8.238118744,-0.1041833496,8.923151262,0.0
4.606078708,3.39673645,-7.144642639,-0.7421566772,7.945724227,0.0
4.616060708,3.523223419,-5.390889587,-0.8083190918,6.49062197,0.0
4.626042708,3.732188873,-3.919449463,-1.377734985,5.584753492,0.0
4.636024708,4.265679474,-3.471281433,-2.214494934,5.928727011,0.0
4.646006708,4.843178558,-3.636986847,-2.201771393,6.444520862,0.0
4.655988708,5.433550873,-3.875740356,-1.487905884,6.838033512,0.0
4.665970708,5.990692291,-3.873495026,-0.6917115784,7.167344191,0.0
4.675952708,6.320007477,-3.650309143,-0.3239263916,7.305626575,0.0
4.685934708,6.111790466,-3.350931702,-0.2137554932,6.973407874,0.0
4.695917708,5.697003021,-3.268153839,-0.287252655,6.574130135,0.0
4.705899708,5.408253479,-3.180735626,-0.398770752,6.286915216,0.0
4.715881708,5.087919617,-3.091820526,-0.6990463257,5.994576378,0.0
4.725863708,4.321213989,-3.481460266,-0.9571096802,5.631120214,0.0
4.735845708,3.732787628,-3.732488251,-1.425785065,5.46790957,0.0
4.745827708,3.723506927,-4.157454529,-2.750230865,6.221953215,0.0
4.755809708,4.269272003,-4.827311554,-4.744833069,8.002690868,0.0
4.765791708,4.909041595,-5.53219574,-7.418572998,10.47564339,0.0
4.775773708,5.363496552,-6.569089508,-10.13796799,13.21735326,0.0
4.785755708,6.350543976,-7.365583191,-10.44288391,14.27007529,0.0
4.795737708,7.237449646,-8.004155273,-9.440568237,14.33776509,0.0
4.805719708,7.952812042,-8.532706146,-8.698112183,14.55030753,0.0
4.815701708,8.606802063,-9.250762939,-9.43203598,15.76759206,0.0
4.825683708,9.155860291,-10.08976822,-11.06798401,17.55373095,0.0
4.835665708,9.1477771,-10.82683548,-12.85646484,19.13611457,0.0
4.845647708,8.522377625,-11.2697644,-14.49361038,20.24112774,0.0
4.855629708,7.03686676,-11.27575195,-13.09581711,18.65905951,0.0
4.865611708,4.148473206,-10.31475037,3.064577179,11.53236916,0.0
4.875593708,4.740941162,-11.84831131,12.5584346,17.90456041,0.0
4.885575708,5.434598694,-18.77815063,3.781436462,19.9111292,0.0
4.89556075,6.927893372,-16.56754761,4.174219666,18.43647065,0.0
4.90554375,8.656648407,-11.28757736,3.546724548,14.66036218,0.0
4.91552575,8.043523407,-10.05054977,4.39830368,13.60356184,0.0
4.92550775,6.859635315,-12.10233307,4.582720184,14.64658276,0.0
4.93548975,5.818999329,-11.771521,3.426075439,13.57083095,0.0
4.94547175,4.001329193,-8.919202423,1.534459076,9.895320704,0.0
4.95545375,2.1061203,-7.080875244,0.2263293457,7.390924294,0.0
4.96543575,0.8156538391,-6.312822418,0.4628375244,6.382102839,0.0
4.97541775,0.4119433594,-6.179300079,1.229094086,6.313803851,0.0
4.98539975,0.07110214233,-7.097640381,1.582359467,7.272235968,0.0
4.99538175,0.310304718,-8.744365997,0.8584648132,8.791881912,0.0
5.00536375,1.049018555,-9.729916534,-0.5962101746,9.804447066,0.0
5.01534575,1.794468384,-9.8498172,-2.412832489,10.29858127,0.0
5.02532775,2.415826263,-9.775272217,-3.961212616,10.82050687,0.0
5.03530975,2.762355652,-9.859546967,-5.320685577,11.53910612,0.0
5.04529175,2.994373169,-9.961185608,-6.39095993,12.20802434,0.0
5.05527375,3.447331238,-9.733509064,-6.25878479,12.07467094,0.0
5.06525575,3.841461639,-9.256750488,-4.397555237,10.94453056,0.0
5.07523775,3.782484283,-9.084608459,-2.156864777,10.07419296,0.0
5.08521975,3.744912415,-9.146729279,0.1707948303,9.885150295,0.0
5.09520275,4.032314758,-9.076076202,1.459315338,10.03814339,0.0
5.10518475,4.430337067,-9.105265503,1.297950897,10.20874248,0.0
5.11516675,4.977000275,-8.855135651,0.7762857056,10.18756981,0.0
5.12514875,5.599855042,-8.167765045,1.133293304,9.967703649,0.0
5.13513075,5.714217224,-8.889414368,0.8158035278,10.59903305,0.0
5.14511275,5.208568726,-8.965306549,1.159039764,10.43308597,0.0
5.15509475,4.765041046,-8.337512054,1.377884674,9.701458117,0.0
5.16507675,4.721631317,-7.395071869,1.202449493,8.855889285,0.0
5.17505875,5.049898682,-6.377338257,0.5608836365,8.153926072,0.0
5.18504075,5.753884735,-5.60584259,-0.03158432007,8.033284401,0.0
5.19502275,6.735693054,-5.10977417,-1.094673615,8.525119548,0.0
5.20500475,7.951165466,-5.191803589,-2.056573334,9.716241591,0.0
5.21498675,8.725205841,-5.564229126,-2.345921631,10.61099482,0.0
5.22496875,8.22105423,-5.710175629,-1.898651733,10.18806737,0.0
5.23495075,7.405550079,-6.114185486,-1.000669098,9.655401327,0.0
5.24493275,6.915469208,-6.860533447,-0.0983454895,9.741678776,0.0
5.25491475,6.480773163,-7.35510498,0.0470022583,9.80307091,0.0
5.26489675,6.093528442,-7.437433777,-0.3876937866,9.622723966,0.0
5.27487875,5.921236725,-7.290738831,-0.840352478,9.429852031,0.0
5.28486075,5.938750305,-7.064110107,-0.927171936,9.275238789,0.0
5.29484375,5.822142792,-7.340585175,-0.1992356873,9.371298323,0.0
5.30482575,5.518723755,-8.169112244,0.4391867065,9.868312505,0.0
5.31480775,5.413791962,-8.872649231,-0.382155304,10.40091777,0.0
5.32478975,5.253325653,-8.338709564,-0.2368075562,9.85837641,0.0
5.33477175,5.613626404,-7.690258026,0.3671864319,9.528257752,0.0
5.34475375,6.364914093,-8.093968506,0.4947212219,10.30869568,0.0
5.35473575,6.79003006,-8.765322418,0.5200186157,11.09981102,0.0
5.36471775,6.999893646,-9.096882935,0.2086660767,11.48021479,0.0
5.37469975,7.256759491,-9.180858307,0.09729766846,11.7029135,0.0
5.38468175,7.229366455,-9.038204956,-0.3558100891,11.5792698,0.0
5.39466375,6.990463257,-8.999734955,-0.646355896,11.41400814,0.0
5.40464575,6.941365356,-9.27411438,-0.494122467,11.59464995,0.0
5.41462775,7.194638672,-10.00714005,-0.3603007507,12.3302674,0.0
5.42460975,7.432044983,-10.73148376,-0.2665956116,13.05645854,0.0
5.43459175,7.579039307,-10.96574661,-0.259410553,13.332544,0.0
5.44457375,7.909102936,-11.35493729,-0.1128652954,13.83839762,0.0
5.45455575,8.031847687,-11.20854172,-0.0773890686,13.78941528,0.0
5.46453775,7.931705933,-10.17329453,0.6914122009,12.91843378,0.0
5.47451975,7.547754364,-9.065298615,1.278191986,11.86515949,0.0
5.48450275,7.054829407,-9.182205505,0.5984555054,11.59489823,0.0
5.49448475,6.272705841,-9.962532806,0.1484912109,11.77373977,0.0
5.50446675,5.003794556,-11.60087585,-0.2318678284,12.63614036,0.0
5.51444875,3.769760742,-13.3919014,-0.7174580383,13.93086017,0.0
5.52443075,2.958148499,-14.8503186,-1.416654053,15.20820548,0.0
5.53441275,2.436333618,-16.15665207,-1.82769928,16.44121687,0.0
5.54439475,1.933229828,-15.83392319,-1.163680115,15.99389422,0.0
5.55437675,1.514849854,-13.03145096,-0.2308200073,13.12123325,0.0
5.56435875,1.433718567,-11.70386169,-1.48251709,11.88418211,0.0
5.57434075,2.457439728,-10.47955765,-2.792293396,11.12011875,0.0
5.58432275,3.841162262,-8.753197632,-3.845952301,10.30360837,0.0
5.59430475,4.486021271,-8.210276642,-4.792733459,10.5120561,0.0
5.60428675,4.171674957,-9.209897919,-5.288053436,11.41002194,0.0
5.61426875,3.335663452,-10.87278992,-5.324427795,12.55761692,0.0
5.62425075,2.544408875,-12.23840012,-5.313650208,13.5826114,0.0
5.63423275,2.132315826,-11.48172363,-4.589605865,12.54755874,0.0
5.64421475,1.93772049,-10.26580215,-2.825673981,10.82247144,0.0
5.65419675,2.596051483,-8.388705597,-1.176403656,8.859672142,0.0
5.66417875,3.371588745,-6.226302338,0.6533912659,7.110651982,0.0
5.67416175,3.340902557,-6.565796356,0.1345701599,7.368135505,0.0
5.68414375,3.600462799,-6.566245422,-0.5104385376,7.505961552,0.0
5.69412575,3.585344238,-7.007827148,-1.505569153,8.014429058,0.0
5.70410775,3.666625214,-7.541317749,-3.15693512,8.960014129,0.0
5.71408975,4.124223633,-6.699318695,-3.209775238,8.496631605,0.0
5.72407175,4.707111511,-6.573430481,-4.362827454,9.187009876,0.0
5.73405375,4.916526031,-6.630461884,-4.917274475,9.608061265,0.0
5.74403575,4.709057465,-6.450835419,-4.608466644,9.220979591,0.0
5.75401775,4.513563995,-6.749913483,-4.164938965,9.125804542,0.0
5.76399975,4.891977081,-5.379363556,-1.742825775,7.477060499,0.0
5.77398175,4.346511383,-5.040917358,-1.916165314,6.926377013,0.0
5.78396375,3.37802536,-5.474415894,-3.359164581,7.257015323,0.0
5.79394575,2.982697449,-5.47486496,-3.83203125,7.318134591,0.0
5.80392775,3.344345398,-4.703668671,-3.504512329,6.752092399,0.0
5.81390975,3.592080231,-3.527265015,-2.606679382,5.669163631,0.0
5.82389175,3.519780579,-2.864892426,-3.224594421,5.567268012,0.0
5.83387375,3.613485718,-2.499951324,-4.295766907,6.144969404,0.0
5.84385575,4.382885742,-2.383792877,-4.69558548,6.851326799,0.0
5.85383775,4.570445709,-2.033970337,-3.108136597,5.889526502,0.0
5.86382075,3.934717712,-1.752854919,-2.344125366,4.904021572,0.0
5.87380275,3.658392334,-1.761387177,-2.748434601,4.903081889,0.0
5.88378475,3.701652374,-1.619332581,-2.646646271,4.830031552,0.0
5.893762583,3.994892578,-1.671274567,-3.323388977,5.458684794,0.0
5.903744583,5.355113983,-2.528691559,-3.840713196,7.058512919,0.0
5.913726583,8.702453156,-4.627477112,-3.071762238,10.32385386,0.0
5.923708583,10.20727386,-7.094496918,-1.106049957,12.47973048,0.0
5.933690583,11.59428955,-8.165669403,-0.8165519714,14.20466346,0.0
5.943672583,12.39647141,-8.652606812,-1.877096558,15.23363382,0.0
5.953654583,13.25448715,-8.367599487,-2.453547821,15.86562472,0.0
5.963636583,14.13420776,-7.876770172,-3.640878754,16.58539525,0.0
5.973618583,15.21960068,-8.052355042,-2.975063324,17.47362779,0.0
5.983600583,16.29346756,-8.943751373,-3.286415863,18.87507094,0.0
5.993582583,16.5968866,-9.660311279,-4.370910645,19.6947485,0.0
6.003564583,15.45221695,-9.815239105,-4.151167603,18.77077835,0.0
6.013546583,13.01004547,-10.74899734,-3.426374817,17.22040277,0.0
6.023528583,10.34513718,-11.9426152,-0.793200531,15.82014817,0.0
6.033510583,8.989256744,-12.3407872,1.189426575,15.3139316,0.0
6.043492583,7.930508423,-11.97599579,0.1600172424,14.36464564,0.0
6.053474583,6.714586945,-10.69585785,0.4071533203,12.63537996,0.0
6.063456583,6.184688873,-9.17816391,-0.233664093,11.06994436,0.0
6.073438583,5.168601837,-8.275091858,1.768422546,9.915589166,0.0
6.083421583,5.251679077,-7.405999146,2.682721252,9.467098277,0.0
6.093403583,4.67687439,-6.378835144,3.235521698,8.545834805,0.0
6.103385583,4.355193329,-4.788991241,3.496129761,7.356974198,0.0
6.113367583,3.80508728,-4.669539642,2.856958923,6.666746131,0.0
6.123349583,3.33820816,-5.804329834,2.490520935,7.143988597,0.0
6.133331583,3.333118744,-7.493117981,2.780917053,8.659676512,0.0
6.143313583,3.493285675,-9.556427307,2.627635803,10.50870199,0.0
6.153295583,3.764072571,-10.48719177,2.152673492,11.34827902,0.0
6.163277583,3.589086456,-9.945468292,1.459764404,10.67355579,0.0
6.173259583,3.378175049,-8.219557343,0.09385482788,8.887181685,0.0
6.183241583,4.020639038,-6.128106537,-1.101858673,7.411701595,0.0
6.193223583,5.148244171,-4.440815277,-2.209854584,7.149035995,0.0
6.203205583,6.221063232,-3.479514313,-3.18612442,7.80769085,0.0
6.213187583,7.462132416,-3.21306839,-3.093766479,8.693596477,0.0
6.223169583,8.416098633,-3.560196533,-2.340981903,9.433234431,0.0
6.233151583,8.762178955,-3.789669342,-1.770518188,9.709382494,0.0
6.243133583,8.781189423,-3.784280548,-1.576521606,9.691000326,0.0
6.253115583,8.731043701,-3.928580475,-1.725761261,9.728469591,0.0
6.263097583,8.752449188,-4.166286163,-1.010698242,9.7460155,0.0
6.273079583,8.587941284,-4.84063385,-1.201551361,9.931173004,0.0
6.283062583,8.568032684,-5.464686127,-0.7649093628,10.19112677,0.0
6.293044583,8.677904205,-6.047124939,-0.2254312134,10.57944047,0.0
6.303026583,8.29006073,-6.018085327,0.5935157776,10.2613215,0.0
6.313008583,7.805218964,-5.376070404,1.324445801,9.569625528,0.0
6.322990583,6.996600494,-4.842280426,1.033001862,8.571300429,0.0
6.332972583,6.225553894,-3.811374207,1.033301239,7.372367739,0.0
6.342954583,5.661227417,-3.006797333,1.026714935,6.491877204,0.0
6.352936583,5.382956085,-2.635718994,0.7023394775,6.03460948,0.0
6.362918583,5.280569,-2.818488922,-0.7717950439,6.035226289,0.0
6.372900583,4.607867889,-6.06808136,-6.015989685,9.70804768,0.0
6.382882583,5.820346527,-7.562723236,-3.701053619,10.23567361,0.0
6.392864583,6.968159637,-7.027286682,-0.2504292297,9.899531385,0.0
6.402846583,6.928192749,-6.839427338,-0.5167254639,9.749083356,0.0
6.412828583,7.212601318,-6.908733215,-0.1552272034,9.988809133,0.0
6.422810583,7.39492218,-8.113278351,0.2291734314,10.98010383,0.0
6.432792583,7.531438293,-8.452922058,-0.3376977539,11.32645107,0.0
6.442774583,7.568710785,-7.086413727,-0.4315525818,10.37732529,0.0
6.452756583,7.897427216,-5.848488007,-0.5984555054,9.845421148,0.0
6.462738583,8.150550842,-5.709427185,-0.8101153564,9.984253838,0.0
6.472720583,8.336015167,-6.090384979,-0.3790118408,10.33080771,0.0
6.482702583,8.223449249,-6.822512512,-0.1745370483,10.68654564,0.0
6.492684583,8.214617615,-7.390730896,-0.357456665,11.05579581,0.0
6.502666583,8.380023651,-7.859106903,-0.2701881409,11.49188232,0.0
6.512649583,8.707392883,-7.683072968,-0.2902464294,11.61604683,0.0
6.522631583,9.11499527,-7.583979034,-0.3814068604,11.86361446,0.0
6.532613583,9.442065125,-7.995323639,-0.3362008667,12.37702811,0.0
6.542595583,9.960137787,-8.541837158,0.07634124756,13.12147685,0.0
6.552577583,10.34094589,-9.385782166,-0.923429718,13.9957419,0.0
6.562559583,10.62370789,-10.30352371,-2.442171478,14.99966572,0.0
6.572541583,10.68837341,-10.676548,-3.07849823,15.41775453,0.0
6.582523583,10.62071411,-10.93266541,-1.971400452,15.36909759,0.0
6.592505583,10.70828201,-11.18968094,-0.2993774414,15.49083245,0.0
6.602487583,10.30921188,-11.1609407,0.3439846802,15.19752521,0.0
6.612469583,9.604327698,-10.78986237,0.4547543335,14.4523715,0.0
6.622451583,8.326884155,-10.09366013,-0.2360591125,13.08719597,0.0
6.632433583,6.693929901,-9.271569672,-2.054477692,11.61858771,0.0
6.642415583,5.408552856,-8.63524292,-3.523522797,10.78123728,0.0
6.652397583,5.079836426,-8.213420105,-4.164040833,10.51685523,0.0
6.662379583,5.437742157,-7.378456421,-3.851041718,9.941890224,0.0
6.672361583,5.992189178,-7.346123657,-2.912044373,9.917250948,0.0
6.682343583,6.699019318,-8.398135986,-2.395468597,11.00653523,0.0
6.692325583,6.951244812,-9.147328033,-2.737357635,11.81044205,0.0
6.702307583,6.645281067,-9.724827118,-3.679348755,12.33975811,0.0
6.712289583,6.194119263,-9.853110352,-4.113745422,12.34397823,0.0
6.722271583,5.81301178,-9.719138947,-4.672533417,12.25093206,0.0
6.732253583,5.725144501,-9.35719162,-4.817881165,11.98108065,0.0
6.742235583,5.576802979,-8.319998474,-3.879332886,10.74115123,0.0
6.752217583,5.234764252,-7.35630249,-3.068918152,9.536047489,0.0
6.762200583,4.445605316,-6.774462433,-2.500101013,8.479814441,0.0
6.772182583,3.736529846,-6.434818726,-1.957030334,7.694057126,0.0
6.782164583,3.244353333,-6.461313629,-1.28477829,7.343368274,0.0
6.792146583,2.949316864,-6.691385193,-0.8099656677,7.357251535,0.0
6.802128583,2.736309814,-6.674769745,-0.6140231323,7.239956281,0.0
6.812110583,2.731519775,-6.455775146,-0.4263134766,7.022818252,0.0
6.822092583,2.869682465,-5.824837189,-0.5254074097,6.514588143,0.0
6.832074583,2.98494278,-4.978197784,-1.350341949,5.959510043,0.0
6.842056583,3.234922943,-4.549938354,-2.366728363,6.063667918,0.0
6.852038583,3.613036652,-4.386328583,-3.446433105,6.646187887,0.0
6.862020583,4.029919739,-4.36447403,-4.180656281,7.264074173,0.0
6.872002583,4.462969208,-4.374652863,-4.506079559,7.704572332,0.0
6.881984583,4.742438049,-4.505181427,-4.534520416,7.959224444,0.0
6.891966,4.92251358,-4.783153381,-4.287983093,8.0929905,0.0
6.901948,5.218298492,-4.937183075,-3.841162262,8.146222646,0.0
6.91193,5.31918869,-4.927752686,-3.263812866,7.951665818,0.0
6.921912,5.12025238,-4.955594788,-2.823877716,7.664801987,0.0
6.931894,4.681814117,-4.652026062,-2.913092194,7.214349315,0.0
6.941876,4.296665039,-4.091292114,-3.18492691,6.733777621,0.0
6.951858,4.092040558,-3.727099457,-3.418591003,6.505599952,0.0
6.96184,4.11988266,-3.533102875,-3.761378174,6.603348758,0.0
6.971822,4.284689941,-3.065475311,-4.223167877,6.752099947,0.0
6.981804,4.50128952,-2.338886261,-4.54110672,6.808351234,0.0
6.991786,4.672533417,-2.054328003,-4.627626801,6.88968518,0.0
7.001768,4.656067657,-2.281106415,-5.882916412,7.841627256,0.0
7.01175,4.570894775,-2.821482697,-6.814728699,8.677232905,0.0
7.021732,5.310057678,-3.586242371,-7.827971649,10.11607567,0.0
7.031714,6.880591736,-4.681963806,-8.775800629,12.09454441,0.0
7.041696,8.670270081,-6.394103394,-8.602610779,13.78633576,0.0
7.051679,10.24709106,-8.504265289,-8.000562744,15.53494151,0.0
7.061661,11.20090759,-8.568182373,-7.516768799,15.98048476,0.0
7.071643,11.62362854,-8.004005585,-7.346273346,15.91039214,0.0
7.081625,11.86058578,-8.499325562,-7.250472565,16.29359944,0.0
7.091607,12.59465927,-10.04067032,-7.043303375,17.57977887,0.0
7.101589,12.76859756,-12.06865311,-9.364975433,19.90960161,0.0
7.111571,11.88872726,-14.38239166,-11.06109833,21.69200134,0.0
7.121553,10.66098038,-16.06130035,-9.250164185,21.38194119,0.0
7.131535,9.236542511,-15.13472717,-4.740791473,18.35344077,0.0
7.141517,7.935747528,-13.63050522,-0.6218069458,15.78459392,0.0
7.151499,6.441854095,-12.9884903,1.883982239,14.62011469,0.0
7.161481,4.929399261,-12.69749542,3.233875122,13.99940411,0.0
7.171463,3.913461914,-11.89516388,3.723357239,13.06420671,0.0
7.181445,3.122806091,-10.62340851,4.179758148,11.83550186,0.0
7.191427,2.643502808,-9.507030029,4.9448172,11.03734317,0.0
7.201409,2.584824829,-7.934699707,4.638105011,9.54739739,0.0
7.211391,2.28874054,-5.454507294,4.777764587,7.603750228,0.0
7.221373,2.166893921,-2.730471954,6.116281128,7.039872243,0.0
7.231355,1.850751343,-2.907104645,7.181166687,7.965280468,0.0
7.241337,0.3062631226,-4.89676712,7.343878326,8.832025487,0.0
7.251319,-0.3957769775,-7.577243042,8.106991425,11.10380842,0.0
7.261301,-1.031205597,-8.633746033,8.035589905,11.83958026,0.0
7.271283,-1.316811676,-8.910370789,7.294630737,11.59052795,0.0
7.281265,-1.712438965,-8.914412384,6.27405304,11.03462446,0.0
7.291247,-1.671424255,-8.165370026,5.425916748,9.945224947,0.0
7.301229,-1.220861206,-6.542594604,4.356839905,7.954753309,0.0
7.311211,-0.725690918,-5.207371216,2.788700867,5.951486773,0.0
7.321193,-0.1510359192,-5.369783478,-0.1758842468,5.374785737,0.0
7.331175,1.874851227,-5.796546021,-10.83357147,12.42904999,0.0
7.341157,3.976630554,-4.691843262,-15.1091304,16.31296433,0.0
7.351139,3.916605377,-5.05828125,-11.25030487,12.9420001,0.0
7.361121,3.88936203,-8.677904205,-6.984475708,11.79898552,0.0
7.371103,4.63121933,-12.47371078,-4.032314758,13.90328075,0.0
7.381085,5.984704742,-13.78827713,-1.772314453,15.13520319,0.0
7.391067,6.968159637,-13.36316116,-1.159488831,15.11534781,0.0
7.401049,6.949298859,-13.54623047,-0.5858816528,15.23602218,0.0
7.411031,6.74197998,-12.93026138,1.478475494,14.65714308,0.0
7.421013,6.33362915,-11.37424713,4.252207489,13.69560603,0.0
7.430996,5.320984955,-11.09792175,4.940476227,13.26216624,0.0
7.440977,4.164639587,-11.81642761,4.941374359,13.46808691,0.0
7.450959,3.532204742,-11.02322708,4.884043579,12.56351413,0.0
7.460942,3.931274872,-9.445807343,4.646637268,11.2369674,0.0
7.470924,5.067711639,-7.683671722,3.513343964,9.852111358,0.0
7.480906,6.04937027,-6.770420837,2.126477966,9.324987266,0.0
7.490888,6.788982239,-6.819369049,0.812510376,9.656823866,0.0
7.50087,7.325017548,-6.631509705,0.3938310242,9.888776765,0.0
7.510852,7.692653046,-6.686744843,-0.4558021545,10.20280467,0.0
7.520834,7.827522583,-7.592810669,-1.229692841,10.97419829,0.0
7.530816,7.770640869,-7.699688416,-1.101259918,10.99458206,0.0
7.540798,7.333849182,-6.628964996,-0.4897814941,9.897899103,0.0
7.55078,6.556964722,-6.300847321,-0.2016307068,9.095884688,0.0
7.560762,5.971382446,-6.367907867,0.3118016052,8.735266405,0.0
7.570744,5.491330719,-6.162235565,1.52113678,8.392956412,0.0
7.580726,5.123246155,-6.301595764,1.722917175,8.302180673,0.0
7.590708,4.734504547,-6.68000885,1.611099701,8.344680569,0.0
7.60069,4.215683441,-7.163653107,2.070943451,8.566137956,0.0
7.610672,3.822600861,-8.158783722,2.661615143,9.394797727,0.0
7.620654,3.641178131,-9.147926788,1.970352631,10.04116687,0.0
7.630636,3.769012299,-9.575138397,0.7029382324,10.31420628,0.0
7.640618,4.504432983,-9.060059509,0.1399589539,10.1190011,0.0
7.6506,5.58249115,-7.70028717,0.0643661499,9.511191983,0.0
7.660582,6.343807983,-6.101461945,0.1923500061,8.803904595,0.0
7.670564,6.67656601,-5.451363831,0.1272354126,8.620330048,0.0
7.680546,7.170389099,-6.285130005,0.5912704468,9.553373213,0.0
7.690528,7.90281601,-7.721093903,1.062041473,11.09944701,0.0
7.70051,8.717871094,-9.667945404,1.177451477,13.0712217,0.0
7.710492,9.318122864,-12.05697739,1.249002686,15.28915057,0.0
7.720474,9.507030029,-14.45364349,0.1187031555,17.30044857,0.0
7.730456,10.12464569,-20.110979,-14.73071732,26.90639254,0.0
7.740438,8.389454041,-21.97086136,-8.980574799,25.17443965,0.0
7.75042,6.515950012,-20.11981064,3.110232239,21.3761065,0.0
7.760402,5.452261963,-19.76624588,6.386918335,21.47613472,0.0
7.770384,4.070335693,-19.33439392,6.030359802,20.65796845,0.0
7.780366,2.569406891,-18.6485202,3.982318726,19.24131025,0.0
7.790348,1.44973526,-17.81265839,2.568209381,18.05514416,0.0
7.80033,-0.008232879639,-17.43005402,-1.202000427,17.4714526,0.0
7.810312,-1.033450928,-16.62293243,-2.360441437,16.8214621,0.0
7.820294,0.07723937988,-13.75324997,1.106349335,13.7978933,0.0
7.830276,0.05313949585,-12.04425385,2.331850891,12.2680236,0.0
7.840258,-0.8638536072,-11.92091034,1.522633667,12.0487659,0.0
7.85024,-1.747316437,-11.19402191,3.058290253,11.73509184,0.0
7.860222,-1.95283905,-9.520352325,4.014352112,10.51502314,0.0
7.870204,-1.12446167,-7.543712769,3.369642792,8.338255748,0.0
7.880186,-0.4336482239,-6.681655426,2.32496521,7.087879319,0.0
7.890168,-0.3504212952,-7.446714478,0.8738827515,7.505999111,0.0
7.90015475,-0.3908372498,-8.568332062,-0.3580554199,8.584711513,0.0
7.91013675,-0.5908213806,-9.363777924,-1.210233307,9.460130631,0.0
7.92011875,-0.8497828674,-9.511371002,-1.662592621,9.692910991,0.0
7.93010075,-1.081800385,-9.045390015,-1.702709198,9.267609789,0.0
7.94008275,-1.396146698,-8.299191742,-1.470991058,8.543396506,0.0
7.95006475,-1.737436981,-7.636070709,-1.134490814,7.912985059,0.0
7.96004675,-1.960922241,-7.069199524,-0.8473878479,7.384907861,0.0
7.97002875,-1.971699829,-6.435267792,-0.8297245789,6.781497965,0.0
7.98001075,-1.894011383,-5.66437088,-0.9139993286,6.042166115,0.0
7.98999275,-1.710343323,-5.065466309,-0.6236032104,5.382667013,0.0
7.99997475,-1.494492188,-4.645589447,-0.2056723022,4.884394467,0.0
8.00995675,-1.491348724,-4.596192169,0.1266366577,4.83375013,0.0
8.01993875,-1.651964722,-4.694088593,0.2188449097,4.981099101,0.0
8.02992075,-1.813329163,-4.891078949,0.07993377686,5.217011151,0.0
8.03990275,-1.843865662,-4.938829651,-0.02499801636,5.271859615,0.0
8.04988475,-1.733096008,-4.704267426,0.04730163574,5.013580679,0.0
8.05986675,-1.528621216,-4.262835388,0.01317260742,4.528644597,0.0
8.06984875,-1.345252533,-3.7185672,-0.4650828552,3.981676589,0.0
8.07983075,-1.123862915,-3.190016327,-1.016236725,3.531573176,0.0
8.08981275,-0.9533674622,-2.688559113,-1.626218262,3.283572057,0.0
8.09979475,-0.8711883545,-2.426005096,-2.475402374,3.573805645,0.0
8.10977675,-0.82373703,-2.465522919,-3.50795517,4.366130487,0.0
8.11975875,-0.4851411438,-3.373834076,-4.245621185,5.444576894,0.0
8.12974075,0.569715271,-5.199288025,-5.178930359,7.360603991,0.0
8.13972275,2.159858551,-8.488847351,-6.953939209,11.1840417,0.0
8.14970475,5.786217499,-14.13480652,-9.346114655,17.9059467,0.0
8.15968675,11.40164017,-20.64731369,-13.90982437,27.38233327,0.0
8.16966875,13.91536285,-24.28130676,-16.84432205,32.6642062,0.0
8.17965075,13.6864888,-25.45037567,-14.22506882,32.20860414,0.0
8.18963275,12.98070648,-23.66384079,-10.47147446,28.95043832,0.0
8.19961475,11.51450546,-19.73002121,-6.30204483,23.69753873,0.0
8.20959675,9.9188237,-16.7627417,-3.410507812,19.77382453,0.0
8.21957875,7.980953522,-15.94125,-1.97978302,17.93707366,0.0
8.22956075,5.216951294,-15.86086716,-0.3174897766,16.69983496,0.0
8.23954275,2.53437973,-15.92613144,1.201850739,16.17124573,0.0
8.24952475,0.5969586182,-15.72554855,0.9618997192,15.76624521,0.0
8.25950675,-1.050216064,-13.92209885,-2.131417694,14.12341076,0.0
8.26948875,-1.845362549,-11.86986649,-0.07948471069,12.01271872,0.0
8.27947075,-1.514700165,-11.23324036,4.428690491,12.16935927,0.0
8.28945275,-1.297801208,-8.383316803,4.63121933,9.665013248,0.0
8.29943475,-1.153201904,-5.018164673,3.733386383,6.360033428,0.0
8.30941675,-1.098565521,-2.656675415,3.727398834,4.707257432,0.0
8.31939875,-1.132245483,-1.084045715,4.249213715,4.529122668,0.0
8.32938075,-1.475930786,-0.07933502197,4.736899567,4.962145024,0.0
8.33936275,-2.265688477,0.8373587036,6.078858948,6.54118032,0.0
8.34934475,-2.968327332,0.7135661316,8.146509247,8.699756128,0.0
8.35932675,-2.539020081,-2.784509583,7.910599823,8.762288864,0.0
8.36930875,-1.708996124,-6.736591187,5.541775818,8.888959882,0.0
8.37929075,-1.325643311,-9.739047546,3.186423798,10.3324573,0.0
8.38927275,-0.9653425598,-12.40036331,1.834135895,12.57238844,0.0
8.39925475,-0.7960446167,-14.40020462,1.010698242,14.45756173,0.0
8.40923675,-0.8449928284,-15.33156784,1.031504974,15.38944404,0.0
8.41921875,-0.4653822327,-14.58731552,1.867366791,14.71371515,0.0
8.42920075,0.01856140137,-12.27058319,2.029779053,12.43734535,0.0
8.43918275,0.6400689697,-10.24304947,1.268761597,10.34115597,0.0
8.44916475,1.337768097,-8.801098022,-0.3888912964,8.910678219,0.0
8.45914675,2.764600983,-8.1484552,-1.954785004,8.823917789,0.0
8.46912875,4.040098572,-8.120014343,-0.4623884583,9.081345302,0.0
8.47911075,5.898484039,-7.030579834,2.546504517,9.523961992,0.0
8.48909275,5.476960602,-8.853489075,4.204456787,11.22759204,0.0
8.49907475,4.517904968,-10.87054459,4.493954773,12.60062833,0.0
8.50905675,4.69319046,-10.73357941,4.615502014,12.59121211,0.0
8.51903875,3.979624329,-10.55410263,3.425476685,11.78814585,0.0
8.52902075,3.194656677,-10.39408539,0.01901046753,10.87396909,0.0
8.53900275,4.750820618,-9.640402679,-12.71830215,16.65121227,0.0
8.54898475,4.841232605,-8.172555084,-9.093440094,13.14986093,0.0
8.55896675,3.414100342,-8.587043152,0.9439370728,9.288940114,0.0
8.56894875,3.184178467,-8.440647583,2.830314331,9.454850784,0.0
8.57893075,2.198478241,-8.951684875,1.572480011,9.350864242,0.0
8.58891275,1.458417206,-8.643924866,1.421893158,8.880664276,0.0
8.59889475,0.6604266357,-8.450227661,1.375489655,8.586878516,0.0
8.60887675,0.8372090149,-7.732919312,0.8734336853,7.826994724,0.0
8.61885875,1.498533783,-7.908055115,0.6331832886,8.073652226,0.0
8.62884075,1.248254242,-9.170529785,-0.6450086975,9.277542315,0.0
8.63882275,0.9171427917,-10.64661026,-1.308878174,10.76590094,0.0
8.64880475,0.7289840698,-11.17456238,0.1050814819,11.19880816,0.0
8.65878675,0.6053411865,-11.0097551,1.732796631,11.16170818,0.0
8.66876875,0.5818400574,-10.47850983,3.105891266,10.94459988,0.0
8.67875075,0.8508306885,-9.650431824,3.735631714,10.38314459,0.0
8.68873275,1.314266968,-9.07637558,3.568579102,9.840866229,0.0
8.69871475,1.86272644,-9.168583832,3.281027069,9.914525601,0.0
8.70869675,2.477947083,-9.424551544,3.086282043,10.22191422,0.0
8.71867875,2.905158691,-9.631571045,2.703378296,10.4170707,0.0
8.72866075,3.267405396,-9.912237396,2.190095673,10.66418807,0.0
8.73864275,3.782184906,-10.27298721,1.428180084,11.03987714,0.0
8.74862475,4.239334259,-10.72025711,1.191971283,11.58950659,0.0
8.75860675,4.512216797,-11.20135666,2.069147186,12.25201459,0.0
8.76858875,4.825515289,-11.87465652,2.803220673,13.12063686,0.0
8.77857075,5.379662933,-12.91184967,2.443368988,14.19953123,0.0
8.78855275,6.453679504,-14.16758835,-0.7083270264,15.58435966,0.0
8.79853475,9.621841278,-17.24414062,-17.62988846,26.4717431,0.0
8.80851675,8.611592102,-16.98083817,-8.976982269,21.04981221,0.0
8.81849875,5.444777527,-13.89171204,5.120102692,15.77468596,0.0
8.82847975,4.406686249,-12.75063492,6.462810516,14.95879321,0.0
8.83846175,3.070115662,-13.16647018,1.575473785,13.61115957,0.0
8.84844375,1.798659668,-14.32625839,-1.484912109,14.51488271,0.0
8.85842575,1.484762421,-13.49398911,-1.871707764,13.7038517,0.0
8.86840775,1.718725891,-15.13906815,0.03891906738,15.23636826,0.0
8.87838975,1.826202393,-17.05403595,2.831362152,17.38366385,0.0
8.88837175,1.556762695,-17.17049377,3.597469025,17.61224432,0.0
8.898353458,0.7622149658,-17.30596207,3.528612213,17.67847275,0.0
8.908335458,-0.160765686,-17.47945129,2.469714203,17.65379708,0.0
8.918317458,-0.8411009216,-16.41247009,1.127006378,16.47260661,0.0
8.928299458,-1.381327515,-14.84253479,-0.06316864014,14.906807,0.0
8.938281458,-1.279838562,-12.21385117,-0.5553451538,12.29327277,0.0
8.948263458,-0.4749623108,-9.546098785,-0.5763015747,9.575265778,0.0
8.958245458,0.6709048462,-7.99397644,0.3091072083,8.028033377,0.0
8.968227458,1.448238373,-7.052883453,1.430724792,7.340812818,0.0
8.978209458,1.685345306,-6.580765228,2.327809296,7.180916091,0.0
8.988191458,1.756447449,-6.43197464,2.559377747,7.141835888,0.0
8.998173458,1.804946594,-6.562503204,1.98217804,7.088956926,0.0
9.008155458,1.4837146,-6.717281342,1.112935638,6.968637124,0.0
9.018137458,0.8716374207,-6.853348389,0.4399351501,6.922548582,0.0
9.028119458,0.2896476746,-6.76772644,-0.002544708252,6.773922307,0.0
9.038101458,-0.3053649902,-7.304360504,-0.3755690002,7.32038129,0.0
9.048083458,-0.5590873718,-8.380472717,-0.4492158508,8.411105548,0.0
9.058065458,-0.7559280396,-9.028624878,-0.5291496277,9.0756539,0.0
9.068047458,-1.098116455,-8.782985687,-0.4334985352,8.861975982,0.0
9.078029458,-1.487905884,-8.050558777,0.282462616,8.191773048,0.0
9.088011458,-1.806742859,-6.935228119,1.141376495,7.257027568,0.0
9.097993458,-2.14129715,-5.872288513,1.810335388,6.507398872,0.0
9.107975458,-2.506238251,-5.35661087,2.093546448,6.27355138,0.0
9.117957458,-2.718945923,-5.038522339,2.189347229,6.129650527,0.0
9.127939458,-2.600542145,-4.571643219,1.929188232,5.602187823,0.0
9.137921458,-2.314786377,-3.936813354,1.321901093,4.754383015,0.0
9.147903458,-2.435884552,-4.186793518,0.3594026184,4.857153874,0.0
9.157885458,-2.388433228,-3.958518219,-0.2327659607,4.62911004,0.0
9.167867458,-2.145189056,-3.237018585,-0.3912863159,3.902977119,0.0
9.177849458,-1.886676636,-2.660118256,-0.7207511902,3.339949122,0.0
9.187831458,-1.768422546,-2.723586273,-1.268312531,3.486238254,0.0
9.197813458,-1.672472076,-3.005599823,-1.792971497,3.87885807,0.0
9.207795458,-1.552571411,-3.155288544,-2.533032532,4.333887122,0.0
9.217777458,-1.147214355,-3.554957428,-4.028273163,5.493706196,0.0
9.227759458,0.784069519,-5.164560242,-7.405999146,9.062906313,0.0
9.237741458,4.860692139,-9.767039337,-13.65640137,17.47909276,0.0
9.247722458,11.5763269,-17.85996002,-20.49657715,29.54825192,0.0
9.257704458,15.75054657,-26.03311386,-17.73975998,35.22075835,0.0
9.267686458,16.30708923,-31.42924255,-8.511600037,36.41655917,0.0
9.277668458,15.26211227,-30.68005051,-5.57081543,34.71644502,0.0
9.287650458,12.515923,-24.01890244,-3.050656128,27.25550414,0.0
9.297632458,9.760153656,-17.08247681,-1.366508331,19.72153539,0.0
9.307614458,7.760162659,-12.07464066,-0.4478686523,14.36028056,0.0
9.317596458,5.03492981,-10.27538223,0.6604266357,11.46168232,0.0
9.327578458,2.398312683,-12.41742783,0.8144563293,12.67311156,0.0
9.337560458,1.3841716,-13.66972366,0.1160087585,13.74011405,0.0
9.347542458,-0.5674699402,-13.20703583,-2.692001953,13.49054083,0.0
9.357524458,-3.614533539,-11.54354507,-6.120322723,13.55642415,0.0
9.367506458,-3.663032684,-11.08025848,0.06646179199,11.67023366,0.0
9.377488458,-2.722388763,-11.41675873,3.79580658,12.33539331,0.0
9.387470458,-2.487826538,-8.66562973,2.909649353,9.473567378,0.0
9.397452458,-1.768721924,-5.903423767,2.320175171,6.584983086,0.0
9.407434458,-1.4239888,-4.105063477,2.302811279,4.91754309,0.0
9.417416458,-1.276246033,-2.744243317,3.217259674,4.417061821,0.0
9.427398458,-1.476230164,-1.607956238,4.202510834,4.735596696,0.0
9.437380458,-2.408940582,-0.4082011414,5.312452698,5.847373476,0.0
9.447362458,-2.963686981,-0.9803114319,7.090155945,7.746919539,0.0
9.457344458,-2.217189331,-4.286486206,6.71862854,8.272234401,0.0
9.467326458,-1.604513397,-7.660469971,5.062173157,9.321097601,0.0
9.477308458,-1.656305695,-10.81036972,3.366798706,11.44302301,0.0
9.487290458,-1.413809967,-13.31855392,3.221151581,13.77528783,0.0
9.497272458,-1.595382385,-14.50962708,3.902534637,15.10974187,0.0
9.507254458,-1.362915802,-13.95667694,4.31298111,14.67133862,0.0
9.517236458,-0.8225395203,-11.85429886,4.281247101,12.63052055,0.0
9.527218458,-0.3746708679,-9.816286926,3.837420044,10.54635766,0.0
9.537199458,0.07574249268,-8.483757935,3.157234497,9.052514307,0.0
9.547181458,0.5668711853,-7.863896942,2.538421326,8.282861878,0.0
9.557163458,1.055604858,-7.782166901,1.89086792,8.077858923,0.0
9.567145458,1.632056122,-8.115373993,0.7527845764,8.312014608,0.0
9.577127458,2.492915955,-8.805289307,-0.3975732422,9.160011693,0.0
9.587109458,3.293451233,-9.243128815,-1.708397369,9.959963498,0.0
9.597091458,3.554358673,-10.11731094,-1.224304047,10.79316296,0.0
9.607073458,3.598516846,-11.08789261,1.005758514,11.7005229,0.0
9.617055458,3.716321869,-11.57453064,2.51566864,12.41408057,0.0
9.627037458,3.792812805,-11.48337021,3.176544342,12.50374561,0.0
9.637019458,3.685036926,-10.61996567,2.517165527,11.51951779,0.0
9.647001458,3.510649567,-9.657167816,0.7237449646,10.30093964,0.0
9.656983458,3.404370575,-8.93596756,-0.76640625,9.59315557,0.0
9.666965458,3.217109985,-8.869805145,-0.7937992859,9.468545679,0.0
9.676947458,2.870430908,-9.281449127,-0.4739144897,9.726729483,0.0
9.686929458,2.200424194,-9.184899902,-2.362686768,9.735838003,0.0
9.696911458,1.315614166,-8.896000671,-3.787723389,9.757895114,0.0
9.706893458,1.616039429,-9.597891083,-0.2231858826,9.735548706,0.0
9.716875458,1.848655701,-9.620943146,1.250499573,9.876427699,0.0
9.726857458,1.653012543,-9.493108978,0.9488768005,9.682558325,0.0
9.736839458,1.438658295,-9.610165558,0.513432312,9.730808418,0.0
9.746821458,1.265468445,-9.861193542,0.05643264771,9.942219728,0.0
9.756803458,1.224902802,-10.06462051,-0.1203497314,10.13959846,0.0
9.766784458,1.426084442,-9.984087982,0.3653901672,10.09203843,0.0
9.776766458,1.907782745,-9.633816376,1.219813385,9.89636285,0.0
9.786748458,2.480342102,-9.637558594,1.844913483,10.12118266,0.0
9.796730458,2.998714142,-9.949809265,2.159259796,10.61383031,0.0
9.806712458,3.433410187,-10.1378183,2.07812851,10.90331525,0.0
9.816694458,3.713328094,-10.39498352,2.386337585,11.29332081,0.0
9.826676458,3.877985687,-10.79165863,2.985092468,11.84944919,0.0
9.836658458,4.0251297,-10.9884993,3.035986633,12.08991318,0.0
9.846640458,4.173620911,-11.04253693,2.85037262,12.14419027,0.0
9.856622458,4.404141541,-11.36556519,2.638413391,12.47131749,0.0
9.866604458,4.741839294,-12.05098984,2.198478241,13.13562722,0.0
9.876586458,5.242548065,-13.04776703,1.382075958,14.12935485,0.0
9.886568458,5.77319458,-13.95907196,0.1814227295,15.10689842,0.0
9.89654625,5.999673615,-14.31263672,-0.3841012573,15.52401968,0.0
9.90652825,5.510341187,-13.65235977,-2.15177536,14.87887511,0.0
9.91651025,3.479065247,-12.43524078,-16.37504791,20.85380787,0.0
9.92649225,1.573527832,-12.71949966,-7.236102448,14.71811266,0.0
9.93647425,2.059567108,-14.04259827,3.560795288,14.632691,0.0
9.94645625,1.57846756,-14.21788376,4.267625427,14.92824187,0.0
9.95643825,0.4544549561,-14.31128952,2.539768524,14.54200678,0.0
9.96641925,-0.7436535645,-14.8039151,-0.1618135071,14.82346473,0.0
9.97640125,-1.491199036,-15.82658844,-0.1745370483,15.89764257,0.0
9.98638325,-1.708097992,-16.99730392,0.7710466003,17.10030562,0.0
9.99636525,-1.874851227,-17.86445068,1.283281403,18.00834464,0.0
10.00634725,-2.070494385,-18.49389175,1.166973267,18.64598632,0.0
10.01632925,-2.550546112,-18.82290756,1.016087036,19.02208105,0.0
10.02631125,-3.071911926,-17.54681122,-0.1148112488,17.81405087,0.0
10.03629325,-2.076781311,-14.06565033,-0.3894900513,14.22347504,0.0
10.04627525,-0.3010240173,-10.70543793,1.050665131,10.7610833,0.0
10.05625725,0.9969268799,-8.425678711,2.223925323,8.771075692,0.0
10.06623925,1.48955246,-7.322622528,2.825823669,7.989045414,0.0
10.07622125,1.457369385,-6.743027802,2.969375153,7.510628353,0.0
10.08620325,1.224902802,-6.444398804,2.326013031,6.959956856,0.0
10.09618525,1.003213806,-6.179300079,0.6963519287,6.298816827,0.0
10.10616725,0.9666897583,-5.961353302,-0.8629554749,6.10056673,0.0
10.11614925,1.0776091,-5.89025116,-1.755399628,6.240010252,0.0
10.12613125,0.9238787842,-6.149212646,-1.782493286,6.468666825,0.0
10.13611325,0.6228547668,-6.702462158,-1.429676971,6.881491356,0.0
10.14609425,0.146844635,-7.361391907,-1.173858948,7.455843278,0.0
10.15607625,-0.5084925842,-7.758067017,-0.7107220459,7.807130995,0.0
10.16605825,-1.085243225,-7.684420166,-0.08547225952,7.761144996,0.0
10.17604025,-1.67202301,-7.396568756,0.4908293152,7.599065977,0.0
10.18602225,-2.140698395,-7.249724121,1.163829803,7.648240926,0.0
10.19600425,-2.479294281,-7.073839874,1.741927643,7.695480661,0.0
10.20598625,-2.734962616,-6.757397919,1.807191925,7.510551897,0.0
10.21596825,-2.744243317,-6.215375061,1.433718567,6.943868335,0.0
10.22595025,-2.52973938,-5.619763641,0.9006770325,6.228366064,0.0
10.23593225,-2.104174347,-5.012775879,0.5754034424,5.466860234,0.0
10.24591425,-1.713786163,-4.455185394,0.3674858093,4.787565742,0.0
10.25589625,-1.328936462,-3.858376465,0.09714797974,4.081982214,0.0
10.26587825,-0.9482780457,-3.253334656,0.02948867798,3.388847476,0.0
10.27586025,-0.6418652344,-2.754721527,-0.2189945984,2.836977318,0.0
10.28584225,-0.5780978394,-2.666255493,-0.9035211182,2.873928649,0.0
10.29582425,-0.4379891968,-2.737657013,-1.181493073,3.013723003,0.0
10.30580625,-0.2091151428,-3.097808075,-1.460512848,3.431215789,0.0
10.31578725,0.1308279419,-3.625760193,-2.25595871,4.272306476,0.0
10.32576925,1.132544861,-4.655917969,-4.809648285,6.789178641,0.0
10.33575125,3.72320755,-7.609725494,-10.87189178,13.7828962,0.0
10.34573325,9.02608017,-14.0143071,-19.25760361,25.4701045,0.0
10.35571525,14.93219833,-22.32352798,-20.50750443,33.79154016,0.0
10.36569725,17.39861938,-29.58028748,-10.95916031,36.02511011,0.0
10.37567925,16.95628922,-31.78131042,-3.980821838,36.24105929,0.0
10.38566125,14.22357193,-25.07465698,-3.043171692,28.9880892,0.0
10.39564325,10.91125992,-16.81528244,-1.664089508,20.11413708,0.0
10.40562525,8.114924927,-10.72609497,-1.284927979,13.51118647,0.0
10.41560725,5.491630096,-8.218359833,-1.484762421,9.995196792,0.0
10.42558925,2.73451355,-10.37477554,-0.3405418396,10.73450049,0.0
10.43557125,1.473835144,-13.11482758,-0.0715512085,13.19757599,0.0
10.44555325,0.662971344,-14.70541992,-0.9330097961,14.74989537,0.0
10.45553525,-0.7201524353,-14.64419724,-2.003284149,14.79811743,0.0
10.46551625,-2.893932037,-11.69338348,-4.183200989,12.75183244,0.0
10.47549825,-2.9077034,-10.64122147,2.937341766,11.41570453,0.0
10.48548025,-2.608325958,-8.986412659,4.061653748,10.20078467,0.0
10.49546225,-2.007625122,-7.252119141,4.374652863,8.704101236,0.0
10.50544425,-1.922751617,-5.89608902,4.437971191,7.626036179,0.0
10.51542625,-1.846560059,-4.581522675,3.888463898,6.28651617,0.0
10.52540825,-1.899400177,-3.72560257,3.862717438,5.692839497,0.0
10.53539025,-2.824476471,-2.725382538,5.322631531,6.613303541,0.0
10.54537225,-4.067341919,-2.094294891,7.968529358,9.18840582,0.0
10.55535425,-3.788322144,-4.661157074,7.932154999,9.94971622,0.0
10.56533625,-3.315754852,-7.860304413,6.516548767,10.73517692,0.0
10.57531825,-3.400628357,-10.85452789,4.481680298,12.22581315,0.0
10.58530025,-3.274590454,-13.00809952,2.804268494,13.70392343,0.0
10.59528125,-3.363505554,-13.50776047,1.936073914,14.0542216,0.0
10.60526325,-3.152893524,-12.79569122,1.900148621,13.31469174,0.0
10.61524525,-2.35654953,-10.47162415,2.578687592,11.03892511,0.0
10.62522725,-1.809736633,-9.029672699,2.522853699,9.548556253,0.0
10.63520925,-1.258732452,-8.571475525,2.579885101,9.039380908,0.0
10.64519125,-0.4378395081,-8.306676178,2.164798279,8.595284995,0.0
10.65517325,0.1957928467,-8.559650116,1.68609375,8.72633125,0.0
10.66515525,0.8825646973,-9.079369354,1.63579834,9.267669854,0.0
10.67513725,1.878892822,-9.492809601,0.3484753418,9.683238478,0.0
10.68511925,2.861000519,-9.652527466,-0.445922699,10.07747277,0.0
10.69510125,3.480562134,-10.14485367,0.4212240601,10.73358274,0.0
10.70508325,3.8366716,-10.7921077,2.562670898,11.73698938,0.0
10.71506525,4.122277679,-10.9685907,3.777843933,12.31159047,0.0
10.72504625,4.294569397,-10.53943314,4.027973785,12.072595,0.0
10.73502825,4.320914612,-9.771829376,3.077001343,11.11876296,0.0
10.74501025,4.530927887,-9.163793793,1.209335175,10.2940233,0.0
10.75499225,5.146298218,-8.831335144,-1.121318207,10.28271464,0.0
10.76497425,5.804928589,-9.130263519,-3.952081604,11.51858745,0.0
10.77495625,6.369255066,-9.696086884,-13.49922821,17.7991762,0.0
10.78493825,4.035009155,-9.431736603,-2.99781601,10.68764965,0.0
10.79492025,3.131038971,-9.999206543,4.505181427,11.4054459,0.0
10.80490225,3.19315979,-9.437724152,4.23693924,10.82675209,0.0
10.81488425,2.725232849,-8.538544006,3.27503952,9.542510764,0.0
10.82486625,2.140399017,-8.439300385,1.96226944,8.92488657,0.0
10.83484825,1.707648926,-8.697663116,0.9436376953,8.913801694,0.0
10.84482925,1.405876465,-9.132209473,0.1365161133,9.240799486,0.0
10.85481125,1.168170776,-9.247769165,-0.5921685791,9.34004931,0.0
10.86479325,1.079255676,-9.066645813,-0.8933422852,9.174253079,0.0
10.87477525,1.266366577,-9.204509125,-0.5801934814,9.309312381,0.0
10.88475725,1.714384918,-9.407936096,0.1627116394,9.564248654,0.0
10.89473983,2.33319809,-9.841734009,1.014141083,10.16523604,0.0
10.90472183,2.948718109,-10.41129959,1.524878998,10.92773323,0.0
10.91470383,3.500171356,-10.73417816,1.917063446,11.45202657,0.0
10.92468583,3.88352417,-10.75603271,2.434537354,11.69191908,0.0
10.93466783,4.026027832,-10.72130493,2.990032196,11.83619753,0.0
10.94464983,4.184398499,-10.92727661,3.443738708,12.19729073,0.0
10.95463183,4.518952789,-11.54010223,3.504961395,12.87942733,0.0
10.96461283,5.064568176,-12.6964476,3.164120178,14.0307266,0.0
10.97459483,5.812712402,-14.20516022,2.205064545,15.50601535,0.0
10.98457683,6.678961029,-15.4396431,-0.6084846497,16.83334052,0.0
10.99455883,7.895481262,-16.62098648,-18.12760345,25.83032758,0.0
11.00454083,4.775818634,-14.64958603,-11.98797089,19.52255773,0.0
11.01452283,2.408790894,-13.34459976,2.975362701,13.88284551,0.0
11.02450483,2.285597076,-13.06617874,5.183570709,14.24143203,0.0
11.03448683,0.983454895,-13.15449509,1.3841716,13.26362905,0.0
11.04446883,-0.1353186035,-14.44406342,-2.081721039,14.59393167,0.0
11.05445083,-0.1281335449,-16.65691177,-0.1317260742,16.65792544,0.0
11.06443283,-0.2109114075,-18.56349701,2.274071045,18.70345701,0.0
11.07441383,-0.4400848389,-19.70322693,3.165916443,19.96080792,0.0
11.08439583,-0.9355545044,-19.62074844,2.955154724,19.86408747,0.0
11.09437783,-1.365759888,-18.753452,1.982926483,18.90738637,0.0
11.10435983,-1.452279968,-17.9066629,0.8768765259,17.98684536,0.0
11.11434183,-1.145867157,-15.98001938,0.03817062378,16.02109509,0.0
11.12432383,-0.1059796143,-13.09925995,-0.5378315735,13.11072483,0.0
11.13430583,1.086291046,-10.6168222,-0.3978726196,10.679665,0.0
11.14428783,1.893712006,-8.723708954,0.8378077698,8.96611203,0.0
11.15426983,1.894759827,-7.394323425,2.267185364,7.962804983,0.0
11.16425183,1.460512848,-6.483766937,2.548151093,7.117963576,0.0
11.17423283,0.9801617432,-5.758525085,2.122735748,6.21508932,0.0
11.18421483,0.6480024719,-5.360502777,1.22160965,5.535993801,0.0
11.19419683,0.6764433289,-5.412594452,0.3314108276,5.464758679,0.0
11.20417883,0.5559439087,-5.488486633,-0.07649093628,5.517101596,0.0
11.21416083,0.3351530457,-5.807323608,-0.043409729,5.81714874,0.0
11.22414283,0.1306782532,-6.278244324,0.1257385254,6.2808629,0.0
11.23412483,-0.06406677246,-6.735393677,0.3809577942,6.746462879,0.0
11.24410683,-0.379460907,-6.912625122,0.5849835205,6.947703389,0.0
11.25408883,-0.7774832153,-6.831344147,0.5926176453,6.900937521,0.0
11.26407083,-1.105451202,-6.577621765,0.8553213501,6.724485486,0.0
11.27405183,-1.430126038,-6.189179535,1.520837402,6.531780018,0.0
11.28403383,-1.794468384,-5.675298157,2.028282166,6.288326844,0.0
11.29401583,-2.096091156,-5.210215302,2.129172363,6.006106607,0.0
11.30399783,-2.309098206,-4.848118286,1.95867691,5.715995161,0.0
11.31397983,-2.392025757,-4.526137848,1.607357483,5.36575336,0.0
11.32396183,-2.359243927,-4.186943207,1.252295837,4.96636388,0.0
11.33394383,-2.256557465,-3.854185181,0.7322772217,4.525817598,0.0
11.34392583,-2.077529755,-3.470083923,0.1097218323,4.04594256,0.0
11.35390783,-1.802252197,-3.182232513,-0.3233276367,3.671410834,0.0
11.36388983,-1.46021347,-3.101999359,-0.6159690857,3.483395085,0.0
11.37387083,-1.219514008,-3.246748352,-1.023122406,3.615987933,0.0
11.38385283,-1.084494781,-3.527714081,-1.986369324,4.191247864,0.0
11.39383483,-0.9910890198,-4.052223358,-3.777394867,5.627742316,0.0
11.40381683,0.2101629639,-6.040388947,-7.883356476,9.93366883,0.0
11.41379883,3.802692261,-11.21153549,-16.18314697,20.05126536,0.0
11.42378083,10.45111679,-19.78360977,-23.32958588,32.32470626,0.0
11.43376283,14.86349121,-27.5985585,-19.76489868,37.05745569,0.0
11.44374483,15.18622009,-32.84305252,-9.388027496,37.3821139,0.0
11.45372683,13.84081787,-31.00637192,-4.468208313,34.24803972,0.0
11.46370783,10.79644867,-23.84256912,-1.87679718,26.24030819,0.0
11.47368983,7.979456635,-17.02275101,-0.3567082214,18.80353745,0.0
11.48367183,5.334756317,-12.04560104,0.1586700439,13.17502583,0.0
11.49365383,2.280956726,-11.1715686,0.7707472229,11.42806895,0.0
11.50363583,0.8481362915,-12.61172379,0.9358538818,12.67480708,0.0
11.51361783,0.1267863464,-13.49219284,-0.5459147644,13.5038278,0.0
11.52359983,-1.351539459,-13.11707291,-5.708978119,14.36929684,0.0
11.53358183,-2.717748413,-10.06671616,-7.981252899,13.13108253,0.0
11.54356383,-2.169438629,-9.604327698,2.934347992,10.2742383,0.0
11.55354483,-1.606908417,-8.476722565,5.875431976,10.4382796,0.0
11.56352683,-1.171613617,-5.453908539,5.721252594,7.990652543,0.0
11.57350883,-1.122515717,-3.475472717,5.701643372,6.771092178,0.0
11.58349083,-0.9839039612,-2.79768219,5.212909698,5.997459476,0.0
11.59347283,-1.007854156,-2.38813385,5.304519196,5.903971306,0.0
11.60345483,-1.458866272,-2.035766602,6.214177551,6.699898439,0.0
11.61343683,-2.597398682,-2.095043335,7.428003387,8.143151774,0.0
11.62341883,-3.140619049,-3.962859192,7.589068451,9.119303753,0.0
11.63339983,-2.510130157,-7.689060516,5.112019501,9.568445454,0.0
11.64338183,-1.775906982,-10.99673218,2.045795746,11.32551299,0.0
11.65336383,-1.556762695,-13.17679871,0.935255127,13.3013622,0.0
11.66334583,-1.697470093,-14.15067352,0.7952961731,14.27429374,0.0
11.67332783,-1.642085266,-14.23494827,0.9243278503,14.35912875,0.0
11.68330983,-1.238374786,-12.51682114,1.525328064,12.67008323,0.0
11.69329183,-1.037941589,-9.988279266,2.188299408,10.27772834,0.0
11.70327383,-0.8369096375,-8.513096924,2.202519836,8.833138208,0.0
11.71325583,-0.3909869385,-7.9108992,1.930834808,8.15250391,0.0
11.72323683,0.2339634705,-8.083490295,1.778152313,8.280059173,0.0
11.73321883,0.9904902649,-8.532556458,1.091081085,8.658871093,0.0
11.74320083,1.745370483,-8.943601685,0.3718267822,9.119900458,0.0
11.75318283,2.42914856,-9.39581131,0.5348377991,9.719469346,0.0
11.76316483,2.849923553,-9.73979599,1.467099152,10.25368568,0.0
11.77314683,3.245700531,-10.07090744,2.915187836,10.975248,0.0
11.78312883,3.569028168,-10.21161484,3.797303467,11.46449097,0.0
11.79311083,3.778891754,-10.02914429,3.727249146,11.34707646,0.0
11.80309183,3.912264404,-9.545200653,2.739602966,10.67342928,0.0
11.81307383,3.999083862,-9.11843811,1.143771515,10.02231503,0.0
11.82305583,4.097579041,-9.239985352,-0.4297563171,10.11692512,0.0
11.83303783,4.161196747,-9.767488403,-1.101259918,10.67390095,0.0
11.84301983,4.249363403,-10.32717453,-6.436465302,12.88936417,0.0
11.85300183,3.441044312,-9.834099884,-12.4681723,16.24824997,0.0
11.86298383,2.233056335,-10.02345612,1.305734711,10.35186728,0.0
11.87296483,2.848726044,-9.803862762,4.184847565,11.03376247,0.0
11.88294683,2.744393005,-8.731792145,3.322640533,9.737341893,0.0
11.89292883,2.337389374,-8.386160889,2.534978485,9.067370041,0.0
11.90291125,1.988914032,-8.696914673,1.688937836,9.079901699,0.0
11.91289325,1.729054413,-9.394314423,0.8845106506,9.592973039,0.0
11.92287525,1.587598572,-9.977202301,0.2293231201,10.10532652,0.0
11.93285725,1.613045654,-10.201436,-0.1866618347,10.32986232,0.0
11.94283925,1.828597412,-9.94217514,-0.1267863464,10.10973243,0.0
11.95282025,2.105072479,-9.655072174,0.3929328918,9.889698938,0.0
11.96280225,2.409838715,-9.708660736,1.007255402,10.05385396,0.0
11.97278425,2.745889893,-9.825417938,1.504072266,10.31217641,0.0
11.98276625,3.064726868,-10.06656647,2.01376236,10.71370851,0.0
11.99274825,3.296594696,-10.40246796,2.569855957,11.21084456,0.0
12.00273025,3.496578827,-10.80183746,2.729274445,11.67710131,0.0
12.01271225,3.674708405,-11.17950211,2.424059143,12.01502442,0.0
12.02269325,3.809577942,-11.66539169,2.180216217,12.46385134,0.0
12.03267525,4.091142426,-12.52026398,2.202370148,13.35458313,0.0
12.04265725,4.548291779,-13.64053436,2.030228119,14.52146556,0.0
12.05263925,5.138664093,-14.68326599,1.304836578,15.61111038,0.0
12.06262125,5.604495392,-14.99297195,0.1911524963,16.00737692,0.0
12.07260325,5.601351929,-14.18061127,-1.2753479,15.30004548,0.0
12.08258525,5.031037903,-13.09387115,-16.72801392,21.83087845,0.0
12.09256625,2.436183929,-12.81694702,-12.3473735,17.96292725,0.0
12.10254825,1.741478577,-13.70355331,3.204536133,14.18059142,0.0
12.11253025,1.56439682,-14.03062317,4.878654785,14.9367666,0.0
12.12251225,-0.08217910767,-13.71133713,0.5532495117,13.72274041,0.0
12.13249425,-1.286275177,-13.92164978,-2.386187897,14.18311422,0.0
12.14247625,-1.414408722,-15.11736328,-0.4041595459,15.18876458,0.0
12.15245825,-1.382225647,-16.25873978,1.839973755,16.42079993,0.0
12.16243925,-1.235231323,-17.03173233,2.993924103,17.3369341,0.0
12.17242125,-1.266965332,-17.06017319,3.521876221,17.46591888,0.0
12.18240325,-1.68369873,-16.80959427,2.769241333,17.1191705,0.0
12.19238525,-2.056872711,-16.52189255,1.312021637,16.70104965,0.0
12.20236725,-1.774110718,-15.2484906,1.047821045,15.38706806,0.0
12.21234925,-0.7520361328,-13.19521042,1.080752563,13.26073763,0.0
12.22233125,0.4568499756,-11.04014191,0.7185058594,11.07292626,0.0
12.23231225,1.642085266,-9.638905792,-0.1224453735,9.778544972,0.0
12.24229425,2.270628204,-8.385562134,-0.3836521912,8.69601022,0.0
12.25227625,2.319726105,-7.262148285,0.323177948,7.630489558,0.0
12.26225825,2.021845551,-6.430477753,0.9681866455,6.810013872,0.0
12.27224025,1.81482605,-5.874234467,0.8663983154,6.208934707,0.0
12.28222225,1.521585846,-5.632487183,0.2092648315,5.83814415,0.0
12.29220425,0.8565188599,-5.653144226,-0.1601669312,5.719905388,0.0
12.30218525,0.1055305481,-5.86914505,-0.2800675964,5.876771067,0.0
12.31216725,-0.4629872131,-6.154152374,-0.463585968,6.188930486,0.0
12.32214925,-0.9523196411,-6.331683197,-0.6542893982,6.436242648,0.0
12.33213125,-1.313069458,-6.478228455,-0.8232879639,6.661035834,0.0
12.34211325,-1.591789856,-6.557413788,-0.69620224,6.78366922,0.0
12.35209525,-1.789229279,-6.505771179,-0.1290316772,6.748559048,0.0
12.36207625,-1.940863953,-6.312972107,0.6643185425,6.637912988,0.0
12.37205825,-2.009870453,-5.961952057,1.172362061,6.399912841,0.0
12.38204025,-2.111060028,-5.401517487,1.029559021,5.890072782,0.0
12.39202225,-2.122735748,-4.746329956,0.6454577637,5.239300605,0.0
12.40200425,-1.922601929,-4.265829163,0.4013154602,4.696248579,0.0
12.41198625,-1.618733826,-3.879183197,0.2525248718,4.210953608,0.0
12.42196825,-1.317111053,-3.493585052,0.06616241455,3.734206142,0.0
12.43194925,-0.9292675781,-3.188669128,0.05882766724,3.321838307,0.0
12.44193125,-0.6011499023,-3.028352509,-0.05792953491,3.087985744,0.0
12.45191325,-0.3550616455,-2.982996826,-0.3430865479,3.023581852,0.0
12.46189525,-0.09116043091,-3.160078583,-0.5807922363,3.214300312,0.0
12.47187725,0.1221459961,-3.661535797,-0.8138575745,3.752882651,0.0
12.48185925,0.3570075989,-4.510570221,-2.051783295,4.96814984,0.0
12.49184025,1.414109344,-6.477929077,-5.669759674,8.724072737,0.0
12.50182225,3.879781952,-10.10683273,-12.42371475,16.47875797,0.0
12.51180425,8.575966187,-16.08974121,-19.96428406,27.03700439,0.0
12.52178625,14.25485687,-23.22719879,-20.77679443,34.26921206,0.0
12.53176825,16.8290538,-28.45792145,-12.72773254,35.42690391,0.0
12.54175025,16.07896362,-29.8865506,-6.526278534,34.5590985,0.0
12.55173125,12.82607803,-24.85536301,-3.733536072,28.21766538,0.0
12.56171325,9.437125397,-19.73930191,-1.234183502,21.91398149,0.0
12.57169525,6.3488974,-17.55429565,-0.1423539734,18.66767417,0.0
12.58167725,3.661535797,-16.81932404,0.6948550415,17.22728443,0.0
12.59165925,1.424288177,-15.3374057,0.7213499451,15.42027744,0.0
12.60164125,-0.08921447754,-14.3367366,-0.196690979,14.33836333,0.0
12.61162225,-1.450184326,-12.8464357,-2.100881195,13.09761988,0.0
12.62160425,-3.78877121,-9.75386673,-7.55643631,12.90706912,0.0
12.63158625,-4.439917145,-8.051456909,-5.599855042,10.76555614,0.0
12.64156825,-3.281027069,-7.924670563,0.7957452393,8.613869783,0.0
12.65155025,-2.302062836,-5.794600067,3.416794739,7.10994863,0.0
12.66153225,-1.633852386,-3.311713257,4.33513504,5.694761991,0.0
12.67151325,-1.28238327,-1.662293243,5.144202576,5.556126872,0.0
12.68149525,-1.17475708,-0.5899232483,5.614225159,5.766072127,0.0
12.69147725,-1.184935913,-0.02559677124,6.359974365,6.469466921,0.0
12.70145925,-1.654958496,0.2125579834,8.048612823,8.219746766,0.0
12.71144125,-2.284549255,-1.13613739,10.08887009,10.40650148,0.0
12.72142325,-2.671943665,-4.470753021,9.835297394,11.12924033,0.0
12.73140425,-1.891915741,-8.503666534,7.372618561,11.41258928,0.0
12.74138625,-1.13613739,-11.86522614,4.22870636,12.64738538,0.0
12.75136825,-0.7119195557,-14.57593918,2.781665497,14.85605921,0.0
12.76135025,-0.7514373779,-16.15680176,1.632954254,16.25648919,0.0
12.77133225,-1.086889801,-16.12940872,0.6032455444,16.17723896,0.0
12.78131425,-1.480571136,-14.62129486,0.3820056152,14.70102998,0.0
12.79129525,-1.698218536,-12.26923599,0.2721340942,12.38919509,0.0
12.80127725,-1.497036896,-9.929002533,0.4740641785,10.05241004,0.0
12.81125925,-1.201251984,-8.298592987,0.3273692322,8.391473202,0.0
12.82124125,-0.6210585022,-7.358248444,-0.7149133301,7.418937585,0.0
12.83122325,0.02200424194,-7.111561432,-0.2447410583,7.115805532,0.0
12.84120525,0.781973877,-7.312144318,0.2466870117,7.357974731,0.0
12.85118625,1.490600281,-8.118966522,1.257385254,8.349881692,0.0
12.86116825,2.267784119,-9.056616669,2.632126465,9.70016701,0.0
12.87115025,3.005150757,-9.991422729,3.82963623,11.1142059,0.0
12.88113225,3.609294434,-10.8450975,4.669240265,12.34685996,0.0
12.89111425,4.06135437,-11.30973129,4.837041321,12.9538253,0.0
12.90109837,4.504432983,-11.33832184,3.820056152,12.7843767,0.0
12.91108038,7.100484467,-11.95668594,-8.098608856,16.09244182,0.0
12.92106237,8.477171631,-11.14327744,-10.37357803,17.42544668,0.0
12.93104438,5.667065277,-8.786278839,0.4755610657,10.46615894,0.0
12.94102638,4.656516724,-7.987689514,2.988535309,9.716875787,0.0
12.95100837,4.286935272,-7.877817993,2.955154724,9.443027576,0.0
12.96098938,3.715573425,-8.194858704,2.422562256,9.318261798,0.0
12.97097137,3.189267883,-8.896749115,1.324445801,9.543465363,0.0
12.98095338,2.622845764,-9.312285004,0.5499563599,9.690223108,0.0
12.99093537,2.106719055,-9.326056366,0.2612068176,9.564612983,0.0
13.00091738,1.595532074,-9.293573914,-0.05508544922,9.429701644,0.0
13.01089938,1.198856964,-9.390572205,-0.3790118408,9.474373558,0.0
13.02088037,0.9369017029,-9.634265442,-0.5610333252,9.695958632,0.0
13.03086238,0.8063731384,-10.04845413,-0.5080435181,10.09355122,0.0
13.04084437,0.7189549255,-10.44812302,-0.1850152588,10.47446425,0.0
13.05082638,0.7542814636,-10.65903442,0.479153595,10.69642667,0.0
13.06080837,0.8882528687,-10.59930862,1.454076233,10.73539353,0.0
13.07078938,1.191971283,-10.35741165,2.49815506,10.72089317,0.0
13.08077138,1.701212311,-10.21700363,3.426225128,10.90964276,0.0
13.09075337,2.28050766,-10.26445496,3.901935883,11.21538472,0.0
13.10073538,2.806513824,-10.59362045,3.676953735,11.55946811,0.0
13.11071737,3.218008118,-11.3493988,3.076402588,12.19133636,0.0
13.12069938,3.549269257,-12.14005463,2.580633545,12.90883062,0.0
13.13068037,3.968247986,-12.97067734,2.315684509,13.76037272,0.0
13.14066238,4.585264893,-13.80758698,2.069446564,14.69546601,0.0
13.15064437,5.210814056,-14.51815933,1.461560669,15.49405348,0.0
13.16062637,5.745502167,-14.52639221,0.4153862,15.62688106,0.0
13.17060838,5.981860657,-13.68454285,-0.7150630188,14.95194586,0.0
13.18058937,6.831942902,-12.78985336,-14.94342499,20.8221455,0.0
13.19057138,5.410349121,-12.29498245,-17.06750793,21.71953725,0.0
13.20055337,2.765349426,-12.25666214,1.972597961,12.71865036,0.0
13.21053538,2.575544128,-12.51008514,6.415059814,14.29295807,0.0
13.22051737,1.989961853,-12.34812195,3.954326935,13.11765091,0.0
13.23049938,0.369282074,-12.54137009,-1.744172974,12.66745721,0.0
13.24048038,0.1381626892,-13.86821091,-0.7481442261,13.88906341,0.0
13.25046237,0.282462616,-14.84986954,2.379152527,15.04190072,0.0
13.26044438,0.2350112915,-15.31555115,4.069287872,15.84867316,0.0
13.27042637,0.07185058594,-15.31031204,4.491859131,15.95580195,0.0
13.28040838,-0.326920166,-15.41359726,3.700155487,15.85487332,0.0
13.29038937,-0.9376501465,-15.87299194,1.703158264,15.99161684,0.0
13.30037138,-1.057101746,-15.8842186,0.7295828247,15.93606462,0.0
13.31035338,-0.6417155457,-14.74568619,1.068627777,14.79827778,0.0
13.32033537,0.4403842163,-12.70527924,0.5646258545,12.72544149,0.0
13.33031738,2.143392792,-10.68882248,-1.34330658,10.98405805,0.0
13.34029937,3.51259552,-9.194030914,-1.738035736,9.994463465,0.0
13.35028038,3.655697937,-7.931556244,0.06197113037,8.733702095,0.0
13.36026237,2.99542099,-6.88014267,2.210752716,7.822808807,0.0
13.37024438,2.21733902,-6.18618576,3.082240448,7.258491081,0.0
13.38022637,1.293759613,-5.879772949,2.407294006,6.48387294,0.0
13.39020837,0.3363505554,-5.960006104,1.269210663,6.102925541,0.0
13.40018938,-0.2588117981,-6.372997284,0.5037025452,6.398108641,0.0
13.41017137,-0.6764433289,-6.820566559,-0.02424957275,6.854071185,0.0
13.42015338,-1.021176453,-7.164850616,-0.4305047607,7.250049659,0.0
13.43013537,-1.320703583,-7.330855408,-0.5857319641,7.471865958,0.0
13.44011738,-1.650767212,-7.222480774,-0.466280365,7.423387252,0.0
13.45009837,-2.007176056,-6.892117767,-0.03667373657,7.17853662,0.0
13.46008037,-2.385439453,-6.460714874,0.5050497437,6.905521944,0.0
13.47006238,-2.718945923,-6.024671631,0.8836125183,6.668591026,0.0
13.48004437,-2.953957214,-5.568270721,1.081950073,6.395476371,0.0
13.49002638,-3.061284027,-5.182522888,0.9629475403,6.095676447,0.0
13.50000837,-3.07385788,-4.930896149,0.6203100586,5.843554027,0.0
13.50998938,-2.916235657,-4.707859955,0.1104702759,5.539005275,0.0
13.51997137,-2.540966034,-4.41821228,-0.3330574036,5.107644797,0.0
13.52995338,-2.052831116,-4.084705811,-0.5026547241,4.599086748,0.0
13.53993538,-1.616338806,-3.709585876,-0.6730004883,4.102012697,0.0
13.54991737,-1.208137665,-3.402424622,-0.8701405334,3.713924403,0.0
13.55989838,-0.9726773071,-3.432961121,-1.124162292,3.740997736,0.0
13.56988037,-0.7671546936,-3.715124359,-1.478026428,4.071269759,0.0
13.57986238,-0.4984634399,-4.231550446,-2.118095398,4.758236342,0.0
13.58984437,-0.1474433899,-5.280718689,-3.758683777,6.48347385,0.0
13.59982638,1.445394287,-8.055049438,-7.594307556,11.1645194,0.0
13.60980738,4.677024078,-12.7880571,-13.65280884,19.28232734,0.0
13.61978937,10.2174527,-19.72014175,-19.61356339,29.63059566,0.0
13.62977138,15.06856476,-26.58247147,-17.39472748,35.16057419,0.0
13.63975337,16.69089111,-32.22304184,-8.616681519,37.29822344,0.0
13.64973538,15.40102341,-30.92928223,-4.684209137,34.86766176,0.0
13.65971637,12.08002945,-23.18603439,-3.30782135,26.35262766,0.0
13.66969838,8.858428802,-15.82584,-1.162033539,18.17358782,0.0
13.67968037,6.008954315,-10.54811508,0.3938310242,12.14600208,0.0
13.68966237,2.811154175,-8.972790985,0.8340655518,9.439768599,0.0
13.69964438,0.7771838379,-10.59421921,0.9741741943,10.66726351,0.0
13.70962637,0.1170565796,-12.1563707,0.3989204407,12.16347764,0.0
13.71960738,-1.476529541,-12.67189865,-3.256627808,13.16673003,0.0
13.72958937,-3.917802887,-11.60042679,-7.150181122,14.17900459,0.0
13.73957138,-3.440445557,-11.12696136,-1.016236725,11.6909654,0.0
13.74955337,-2.3038591,-9.889784088,2.781964874,10.52876653,0.0
13.75953538,-1.724863129,-6.350543976,3.082240448,7.266688915,0.0
13.76951638,-1.223106537,-4.167034607,4.035009155,5.928023777,0.0
13.77949837,-1.104104004,-2.596201172,4.893623657,5.648615642,0.0
13.78948038,-1.283131714,-1.43566452,5.380261688,5.714435707,0.0
13.79946237,-1.606309662,-0.6976991272,6.49514328,6.727101979,0.0
13.80944438,-2.056723022,-0.7334747314,7.954907684,8.249160626,0.0
13.81942537,-2.883753204,-2.427501984,8.612041168,9.400853765,0.0
13.82940738,-2.79184433,-6.381080475,7.551646271,10.27326356,0.0
13.83938938,-1.825004883,-10.53299652,4.675976257,11.66787952,0.0
13.84937137,-1.522783356,-13.41300751,2.896626434,13.80645082,0.0
13.85935338,-1.43686203,-15.11077698,1.829645233,15.28881143,0.0
13.86933437,-1.273551636,-15.57376419,1.208137665,15.67238531,0.0
13.87931638,-1.421743469,-14.6194986,1.27774292,14.74393844,0.0
13.88929837,-1.3748909,-12.24094482,1.641336823,12.42678727,0.0
13.899281,-1.260079651,-9.806557159,1.539249115,10.00628062,0.0
13.909263,-0.9285191345,-8.367749176,1.395398254,8.533962171,0.0
13.919244,-0.3844006348,-7.682474213,1.114282837,7.772374162,0.0
13.929226,0.2263293457,-7.528444519,0.6879693604,7.563200625,0.0
13.939208,1.076561279,-7.781268768,0.3285667419,7.862256924,0.0
13.94919,1.963317261,-8.416996765,0.5572911072,8.660890404,0.0
13.959172,2.669698334,-9.009015656,0.5745053101,9.413804153,0.0
13.969154,3.210823059,-9.864486694,1.652713165,10.50471053,0.0
13.979135,3.54657486,-10.737621,3.291056213,11.77734049,0.0
13.989117,3.788172455,-11.15016312,4.305796051,12.53859114,0.0
13.999099,3.933071136,-10.93521011,4.414320374,12.43117425,0.0
14.009081,3.903881836,-10.17419266,3.062631226,11.31963779,0.0
14.019063,3.944597168,-9.47065567,0.6020480347,10.27694641,0.0
14.029044,5.518274689,-9.531129913,-10.38255936,15.13576334,0.0
14.039026,6.704857178,-9.549391937,-13.07905197,17.52733855,0.0
14.049008,4.363575897,-8.973539429,0.9074130249,10.0194113,0.0
14.05899,3.359164581,-9.149124298,4.308041382,10.65596934,0.0
14.068972,2.962190094,-8.940158844,3.824546814,10.16504642,0.0
14.078953,2.187850342,-8.963659973,2.47001358,9.551693898,0.0
14.088935,1.488654327,-9.239985352,1.365011444,9.458154008,0.0
14.098917,0.9297166443,-9.480385437,0.4926255798,9.538593242,0.0
14.108899,0.5228627014,-9.704768829,-0.302820282,9.723560231,0.0
14.118881,0.2338137817,-10.02435425,-0.9366023254,10.07072842,0.0
14.128862,0.03742218018,-10.4536615,-1.2859758,10.53252927,0.0
14.138844,-0.1297801208,-10.8491391,-1.121318207,10.90770446,0.0
14.148826,-0.05358856201,-10.80677719,-0.1694476318,10.80823841,0.0
14.158808,0.3165916443,-10.26774811,1.408720551,10.36876922,0.0
14.16879,0.9933343506,-9.840835876,2.740650787,10.26352428,0.0
14.178771,1.776655426,-9.876761169,3.642225952,10.67580093,0.0
14.188753,2.599045258,-10.30172745,4.074826355,11.37914032,0.0
14.198735,3.415297852,-10.78701828,4.132606201,12.04584811,0.0
14.208717,4.006119232,-11.12935638,3.72201004,12.40019853,0.0
14.218699,4.385280762,-11.39655075,3.024161224,12.58004799,0.0
14.22868,4.700824585,-11.91028244,2.691852264,13.08429013,0.0
14.238662,5.103487244,-12.8000322,2.595602417,14.02225225,0.0
14.248644,5.730533295,-13.88228165,1.920805664,15.14088009,0.0
14.258626,6.551725616,-14.61036758,0.1260379028,16.01261487,0.0
14.268608,8.292006683,-14.70452179,-14.95869324,22.5553284,0.0
14.278589,7.464826813,-13.40552307,-18.12640594,23.74864797,0.0
14.288571,3.952979736,-11.74637329,0.9473799133,12.42983761,0.0
14.298553,2.967429199,-11.16453323,6.052513733,13.04167784,0.0
14.308535,2.356848907,-10.79884369,5.157973938,12.19731351,0.0
14.318517,1.374741211,-11.42274628,1.193917236,11.56695657,0.0
14.328498,0.632434845,-13.30732727,-1.908980255,13.45842259,0.0
14.33848,0.6635700989,-15.41090286,0.2154020691,15.42668631,0.0
14.348462,0.7161108398,-16.96063019,2.449805603,17.15159872,0.0
14.358444,0.5887257385,-17.902771,3.624263306,18.27542316,0.0
14.368426,0.1249900818,-18.30663116,3.684737549,18.67419765,0.0
14.378407,-0.2920426941,-18.74761414,2.568957825,18.92505929,0.0
14.388389,-0.8999285889,-18.49449051,1.743125153,18.59824013,0.0
14.398371,-1.285526733,-17.15133362,2.165696411,17.33525497,0.0
14.408353,-0.8488847351,-14.31652863,2.365081787,14.53537784,0.0
14.418335,0.499511261,-11.25644211,0.8036787415,11.29614536,0.0
14.428316,2.200424194,-9.209897919,-0.9505233765,9.516700111,0.0
14.438298,3.071762238,-7.940088501,-0.1878593445,8.515633845,0.0
14.44828,2.676733704,-6.599476318,1.376687164,7.253499745,0.0
14.458262,1.969454498,-5.815855865,2.010020142,6.460890917,0.0
14.468244,1.352437592,-5.53683609,1.717079315,5.952646697,0.0
14.478225,0.859662323,-5.492677917,0.9851014709,5.646145138,0.0
14.488207,0.3656895447,-5.644761658,0.4854405212,5.677386328,0.0
14.498189,-0.09385482788,-5.995182953,0.2847079468,6.002673236,0.0
14.508171,-0.5451663208,-6.401887207,-0.07679031372,6.425516546,0.0
14.518153,-0.8881031799,-6.582112427,-0.4617897034,6.657790999,0.0
14.528134,-1.246757355,-6.626270599,-0.5313949585,6.763449309,0.0
14.538116,-1.601519623,-6.534212036,-0.2724334717,6.733127953,0.0
14.548098,-1.997446289,-6.419251099,0.3198847961,6.730445946,0.0
14.55808,-2.309996338,-6.357579346,1.173110504,6.865208407,0.0
14.568061,-2.581980743,-6.316265259,1.800306244,7.05711938,0.0
14.578043,-2.890489197,-6.166576538,1.921703796,7.076336586,0.0
14.588025,-3.087928619,-5.899831238,1.581611023,6.844326499,0.0
14.598007,-2.98374527,-5.697302399,1.061442719,6.518331926,0.0
14.607989,-2.591560822,-5.44208313,0.4951702881,6.047945924,0.0
14.61797,-2.065704346,-5.034331055,0.02754272461,5.441726033,0.0
14.627952,-1.568887482,-4.619992676,-0.2504292297,4.885535288,0.0
14.637934,-1.229842529,-4.206851807,-0.4899311829,4.410232118,0.0
14.647916,-1.020727386,-3.942800903,-0.7119195557,4.13453659,0.0
14.657898,-0.876277771,-4.008514252,-0.822689209,4.184837724,0.0
14.667879,-0.799637146,-4.285887451,-1.020128632,4.477601281,0.0
14.677861,-0.8378077698,-4.578678589,-1.781445465,4.983950985,0.0
14.687843,-0.8232879639,-5.104834442,-3.014581146,5.985385304,0.0
14.697825,0.4037104797,-7.074139252,-5.795647888,9.154013478,0.0
14.707807,3.517385559,-11.37963593,-11.8577417,16.8069674,0.0
14.717788,8.256979523,-17.85247559,-17.7779306,26.51308002,0.0
14.72777,12.83416122,-24.6457988,-18.72501114,33.50756832,0.0
14.737752,14.76724136,-29.45335144,-13.1994017,35.49359849,0.0
14.747734,13.71597748,-29.29019073,-8.431067505,33.42343804,0.0
14.757716,10.75199112,-23.80110535,-5.359754333,26.66129958,0.0
14.767697,7.645052032,-19.59036163,-1.349593506,21.0725056,0.0
14.777679,4.746779022,-17.93360687,0.2098635864,18.55236398,0.0
14.787661,2.277663574,-16.60062881,-0.2875520325,16.75861911,0.0
14.797643,-0.03637435913,-14.49570602,-1.323697357,14.55606372,0.0
14.807625,-1.530567169,-13.37917786,-3.137176208,13.82703549,0.0
14.817606,-3.379073181,-11.24626328,-7.795189819,14.0947351,0.0
14.827588,-4.992418213,-8.43750412,-9.855205994,13.90110789,0.0
14.83757,-4.1432341,-7.862400055,-3.193758545,9.443718393,0.0
14.847552,-2.867137756,-7.948620758,4.014202423,9.354938373,0.0
14.857533,-2.013163605,-6.281088409,6.081253967,8.971429603,0.0
14.867515,-1.534608765,-3.956272888,4.853207703,6.446762306,0.0
14.877497,-1.277293854,-2.481838989,4.223317566,5.062352775,0.0
14.887479,-1.182690582,-1.294358368,4.595743103,4.918838813,0.0
14.89745658,-1.559008026,-0.01930984497,5.957760773,6.158392024,0.0
14.90743758,-2.000739441,0.4707710266,8.588839417,8.831350191,0.0
14.91741958,-2.189796295,-1.463356934,10.47476761,10.8008045,0.0
14.92740158,-2.029329987,-5.758824463,9.327104187,11.14796447,0.0
14.93738358,-1.426683197,-9.649533691,6.207591248,11.56214143,0.0
14.94736558,-0.790506134,-12.55035141,3.344944153,13.01248907,0.0
14.95734658,-0.2092648315,-14.61336136,2.009870453,14.7524134,0.0
14.96732858,0.01556762695,-15.56553131,1.329535217,15.62221723,0.0
14.97731058,-0.3384461975,-15.20702682,1.538949738,15.28844587,0.0
14.98729258,-0.2386038208,-13.74845993,2.276166687,13.93764747,0.0
14.99727458,-0.01901046753,-11.58126663,2.021396484,11.75636602,0.0
15.00725558,0.2194436646,-9.88259903,1.763632507,10.04113135,0.0
15.01723758,0.592767334,-8.810977478,1.284927979,8.923885765,0.0
15.02721958,1.149309998,-8.08528656,-0.3230282593,8.172950476,0.0
15.03720158,1.930385742,-7.856113129,-1.775457916,8.282339852,0.0
15.04718358,2.837050323,-8.24560318,-1.581012268,8.86219082,0.0
15.05716458,3.259471893,-9.108109589,0.5010081482,9.686734562,0.0
15.06714658,3.664529572,-10.04396347,2.634820862,11.0114604,0.0
15.07712858,4.258195038,-10.7337291,4.154909821,12.27226307,0.0
15.08711058,4.756209412,-11.09657455,4.873116302,13.01932246,0.0
15.09709158,5.068160706,-10.96709381,4.561165009,12.91385403,0.0
15.10707358,5.340145111,-10.29588959,3.132685547,12.01400062,0.0
15.11705558,5.622158661,-9.524693298,-0.03697311401,11.06028107,0.0
15.12703758,7.597900085,-9.351503448,-16.99326233,20.83145859,0.0
15.13701958,6.374344482,-8.524622955,-8.036338348,13.3373235,0.0
15.14700058,3.950285339,-8.234376526,3.75479187,9.874622677,0.0
15.15698258,3.380121002,-8.487051086,4.786596222,10.31342608,0.0
15.16696458,2.939736786,-8.665030975,4.009262695,9.989945022,0.0
15.17694658,2.223027191,-8.612490234,2.167792053,9.155116619,0.0
15.18692758,1.621577911,-8.621022491,0.8758287048,8.815816448,0.0
15.19690958,1.370250549,-8.889564056,0.819994812,9.031850706,0.0
15.20689158,1.171613617,-9.065597992,0.3969744873,9.149608416,0.0
15.21687358,0.9174421692,-9.258397064,-0.4450245667,9.314379378,0.0
15.22685558,0.7384144592,-9.564660187,-1.088686066,9.654699257,0.0
15.23683658,0.6635700989,-9.893675995,-1.423090668,10.01750154,0.0
15.24681858,0.5947132874,-10.35845947,-1.388063507,10.46795524,0.0
15.25680058,0.5918692017,-10.6500531,-0.8599617004,10.70109687,0.0
15.26678258,0.8096662903,-10.65544189,0.2634521484,10.68940637,0.0
15.27676458,1.20170105,-10.56981995,1.780996399,10.785969,0.0
15.28674558,1.663939819,-10.52117111,3.262315979,11.14030712,0.0
15.29672758,2.188598785,-10.60709244,4.135899353,11.59336181,0.0
15.30670958,2.734064484,-10.75842773,4.522545319,11.98633773,0.0
15.31669158,3.316503296,-10.83910995,4.751119995,12.29059152,0.0
15.32667258,3.822002106,-10.84539688,4.455784149,12.33224821,0.0
15.33665458,4.201313324,-11.07906097,3.655099182,12.39985386,0.0
15.34663658,4.715793457,-11.71868088,3.085084534,13.00322791,0.0
15.35661858,5.446573792,-12.86155426,2.622396698,14.21132325,0.0
15.36660058,6.352489929,-14.07253601,1.63115799,15.52581961,0.0
15.37658158,7.150031433,-14.62324081,0.1326242065,16.2781974,0.0
15.38656358,7.405999146,-14.17926407,-1.27190506,16.04737036,0.0
15.39654558,7.074887695,-12.94537994,-6.817872162,16.25177771,0.0
15.40652758,5.715265045,-11.41062149,-25.359814,28.38990495,0.0
15.41650858,2.976260834,-11.36436768,-5.378016357,12.92014091,0.0
15.42649058,2.909799042,-12.41877502,6.86487442,14.48514426,0.0
15.43647258,2.366129608,-12.73177414,7.045848083,14.74247663,0.0
15.44645458,1.201551361,-12.61082565,4.799469452,13.54664373,0.0
15.45643658,0.182769928,-13.19790482,0.8984317017,13.22971186,0.0
15.46641758,-0.5737568665,-14.87067627,-1.851799164,14.99651192,0.0
15.47639958,-0.6236032104,-16.58925247,-1.280587006,16.65028773,0.0
15.48638158,-0.6523434448,-17.48513947,-0.2689906311,17.4993717,0.0
15.49636358,-0.7532336426,-17.58034149,0.8259823608,17.61584556,0.0
15.50634458,-1.020577698,-16.94790665,1.112486572,17.01501528,0.0
15.51632658,-1.571282501,-15.8324263,1.011596375,15.94233291,0.0
15.52630858,-1.548679504,-13.70310425,1.441203003,13.86544411,0.0
15.53629058,-0.5777984619,-11.29536118,1.969903564,11.48039874,0.0
15.54627258,0.5245092773,-9.401798859,2.211800537,9.672693181,0.0
15.55625358,1.293160858,-8.063881073,2.001787262,8.408661915,0.0
15.56623558,1.553768921,-7.043153687,1.819616089,7.438495441,0.0
15.57621758,1.543440399,-6.221512299,1.550924835,6.595058104,0.0
15.58619958,1.50122818,-5.704936523,0.9147477722,5.969652441,0.0
15.59618158,1.594484253,-5.547164612,0.2074685669,5.77550504,0.0
15.60616258,1.518292694,-5.665867767,-0.3908372498,5.878777425,0.0
15.61614458,1.168769531,-6.151457977,-0.6846762085,6.298828381,0.0
15.62612658,0.7536827087,-6.722370758,-0.4501139832,6.779447531,0.0
15.63610858,0.3882925415,-7.22173233,-0.03742218018,7.232260322,0.0
15.64608958,-0.043409729,-7.777676239,0.04236190796,7.777912742,0.0
15.65607158,-0.5592370605,-8.05130722,-0.01287322998,8.070716187,0.0
15.66605358,-1.081051941,-8.039781189,0.1073268127,8.112846227,0.0
15.67603558,-1.591191101,-7.762108612,0.5477110291,7.942430774,0.0
15.68601758,-2.116598511,-7.233408051,0.7761360168,7.576580257,0.0
15.69599858,-2.514620819,-6.559210052,0.8057743835,7.070772711,0.0
15.70598058,-2.731819153,-5.864953766,0.6855743408,6.506191723,0.0
15.71596258,-2.753973083,-5.313949585,0.4023632813,5.998693537,0.0
15.72594458,-2.577939148,-4.851860504,0.0252973938,5.494266153,0.0
15.73592558,-2.186652832,-4.436324615,-0.3833528137,4.960784825,0.0
15.74590758,-1.712139587,-4.022285614,-0.3640429688,4.386653714,0.0
15.75588958,-1.280437317,-3.572471008,-0.2418969727,3.802707322,0.0
15.76587158,-0.8229885864,-3.23761734,-0.1977388,3.346427481,0.0
15.77585358,-0.5581892395,-3.215613098,-0.4351451111,3.292581676,0.0
15.78583458,-0.4221221924,-3.53250412,-1.027762756,3.703116091,0.0
15.79581658,-0.4471202087,-3.951183472,-2.114802246,4.503793495,0.0
15.80579858,-0.545615387,-4.669240265,-4.197720795,6.302409117,0.0
15.81578058,0.7411088562,-6.92460022,-8.28886322,10.8261066,0.0
15.82576158,4.308041382,-11.41810593,-14.20755524,18.7293083,0.0
15.83574358,9.732311554,-17.89723251,-18.46081055,27.49236887,0.0
15.84572558,15.0188681,-25.22674072,-15.92523331,33.4001183,0.0
15.85570758,17.71970169,-30.85488693,-7.696395264,36.40393352,0.0
15.86568858,16.37220383,-29.46876938,-4.586163025,34.02190938,0.0
15.87567058,12.63297958,-22.21994339,-3.804787903,25.84171953,0.0
15.88565258,9.934840393,-17.19459366,-1.705702972,19.93149586,0.0
15.89563458,7.264692993,-14.16369644,-0.09340576172,15.91837887,0.0
15.90561633,3.873195648,-13.38082443,1.27070755,13.98795213,0.0
15.91559733,1.623224487,-13.83348312,1.311123505,13.98996633,0.0
15.92557933,0.5113366699,-14.04604111,-0.2600093079,14.0577502,0.0
15.93556133,-0.8387059021,-13.52437592,-1.729952545,13.66034067,0.0
15.94554333,-3.538641357,-10.99837875,-6.987319794,13.50218337,0.0
15.95552433,-4.219575348,-9.210346985,-3.820505219,10.82735276,0.0
15.96550633,-3.258124695,-8.206235046,1.501677246,8.956154572,0.0
15.97548833,-2.690205688,-5.542075195,2.741698608,6.743049412,0.0
15.98547033,-2.245630188,-3.477867737,3.763922882,5.595134887,0.0
15.99545233,-2.174677734,-2.181713104,4.646786957,5.575098595,0.0
16.00543333,-2.361040192,-1.657203827,4.824617157,5.621189022,0.0
16.01541533,-2.380350037,-1.540296936,5.42681488,6.122818035,0.0
16.02539733,-3.046165466,-1.403780823,7.575895844,8.285162791,0.0
16.03537933,-4.152065735,-2.143692169,9.577084351,10.65624749,0.0
16.04536033,-4.000880127,-5.027445374,9.68830307,11.62520818,0.0
16.05534233,-3.22594162,-8.660091248,6.798861694,11.47294209,0.0
16.06532433,-2.84917511,-11.67646866,3.775448914,12.59808452,0.0
16.07530633,-2.255809021,-13.98616562,2.502945099,14.38632118,0.0
16.08528733,-1.666484528,-15.15478546,2.276765442,15.4151988,0.0
16.09526933,-1.534608765,-14.96423172,2.389181671,15.23126535,0.0
16.10525133,-1.399739227,-13.06782532,2.201771393,13.32573171,0.0
16.11523333,-1.228345642,-10.8862619,1.791474609,11.10085188,0.0
16.12521433,-1.02147583,-9.264534302,1.288071442,9.409258033,0.0
16.13519633,-0.6767427063,-8.328231354,0.6439608765,8.38045964,0.0
16.14517833,-0.1552272034,-7.951165466,-0.1947450256,7.955064637,0.0
16.15516033,0.6253994751,-8.003556519,-0.9018745422,8.078454007,0.0
16.16514233,1.478774872,-8.553063812,-0.1866618347,8.68196512,0.0
16.17512333,2.341580658,-9.305998077,0.6539900208,9.618331619,0.0
16.18510533,3.085084534,-10.20383102,1.942211151,10.83550176,0.0
16.19508733,3.89759491,-10.98460739,3.115770721,12.06486108,0.0
16.20506933,4.666545868,-11.59952866,3.882775726,13.09204578,0.0
16.21505033,5.266797638,-11.95309341,4.170926514,13.71175509,0.0
16.22503233,5.79894104,-11.91956314,3.762276306,13.77891235,0.0
16.23501433,8.192313995,-12.13002548,-7.471712494,16.43405046,0.0
16.24499633,10.58194473,-11.46525787,-15.60534851,22.06709302,0.0
16.25497733,6.944059753,-8.933123474,0.6032455444,11.33069133,0.0
16.26495933,5.5871315,-7.36214035,4.132306824,10.12388802,0.0
16.27494133,5.176685028,-6.204896851,4.155059509,9.086436724,0.0
16.28492333,4.625231781,-5.814059601,4.159400482,8.514497662,0.0
16.29490533,3.801195374,-6.714586945,3.097658386,8.31446039,0.0
16.30488633,2.976410522,-8.377628632,1.756597137,9.062522529,0.0
16.31486833,2.568808136,-9.313183136,1.058598633,9.718785234,0.0
16.32485033,2.325414276,-9.767189026,0.3403921509,10.04596436,0.0
16.33483233,2.091301117,-10.11686188,-0.6598278809,10.35180213,0.0
16.34481333,1.817819824,-10.27418472,-1.466949463,10.53637895,0.0
16.35479533,1.62876297,-10.09231293,-1.498384094,10.33212485,0.0
16.36477733,1.622775421,-9.779313812,-0.8174501038,9.946688061,0.0
16.37475933,1.822609863,-9.720635834,0.1362167358,9.890966723,0.0
16.38474033,2.230062561,-9.929002533,1.120719452,10.23788467,0.0
16.39472233,2.914289703,-10.02031265,1.992057495,10.62393727,0.0
16.40470433,3.591930542,-9.975555725,2.537523193,10.90195859,0.0
16.41468633,4.060905304,-10.13617172,2.663710785,11.23958559,0.0
16.42466733,4.537663879,-10.49467621,2.809208221,11.7737111,0.0
16.43464933,5.291346588,-11.33802246,3.36051178,12.95539044,0.0
16.44463133,6.263574829,-12.72893005,3.778891754,14.68121428,0.0
16.45461333,7.140151978,-13.92254791,3.279979248,15.9867875,0.0
16.46459533,7.692203979,-14.28000458,1.905238037,16.33151753,0.0
16.47457633,7.855514374,-13.82330429,-0.9794132996,15.92959817,0.0
16.48455833,7.38908432,-13.05240738,-15.67195999,21.6927231,0.0
16.49454033,4.78210556,-13.11617477,-8.72999588,16.46558236,0.0
16.50452233,4.282594299,-14.32970123,2.941982117,15.24257885,0.0
16.51450333,3.866759033,-15.60100754,4.407285004,16.66635601,0.0
16.52448533,3.056643677,-16.79223038,3.374133453,17.39847258,0.0
16.53446733,2.300865326,-18.02581512,1.704954529,18.25187284,0.0
16.54444933,1.337019653,-19.30520462,0.349972229,19.35461257,0.0
16.55443033,-0.1152603149,-20.27339127,-0.2962339783,20.27588304,0.0
16.56441233,-1.23912323,-20.91016708,-1.412163391,20.99439733,0.0
16.57439433,-2.384990387,-20.14929932,-2.279908905,20.41764988,0.0
16.58437633,-3.528612213,-17.46687744,-1.798060913,17.91021872,0.0
16.59435733,-3.225193176,-13.70894211,0.9000782776,14.11194904,0.0
16.60433933,-1.863474884,-10.93101883,3.605701904,11.66022288,0.0
16.61432133,-0.6643185425,-8.979976044,4.58436676,10.10434102,0.0
16.62430333,-0.1516346741,-7.586972809,4.041296082,8.597512634,0.0
16.63428433,0.02395019531,-6.697372742,2.662962341,7.207408944,0.0
16.64426633,0.2032772827,-5.976322174,1.22041214,6.103044664,0.0
16.65424833,0.609382782,-5.400918732,0.2180964661,5.439562169,0.0
16.66423033,1.056203613,-5.245990906,-0.7960446167,5.410145441,0.0
16.67421133,1.286574554,-5.290298767,-1.310375061,5.599965886,0.0
16.68419333,1.02147583,-5.319039001,-1.152902527,5.537578262,0.0
16.69417533,0.3540138245,-5.495971069,-0.9283694458,5.585059857,0.0
16.70415733,-0.3399430847,-5.711971893,-0.7062313843,5.765496247,0.0
16.71413933,-0.9734257507,-5.936654663,-0.4275109863,6.031102049,0.0
16.72412033,-1.646426239,-6.053711243,-0.1526824951,6.275464215,0.0
16.73410233,-2.167642365,-6.055058441,0.4460723877,6.446812136,0.0
16.74408433,-2.611768799,-6.029162292,1.236877899,6.685955515,0.0
16.75406533,-3.012036438,-5.929319916,1.830842743,6.897911518,0.0
16.76404733,-3.301534424,-5.742358704,1.992356873,6.916957347,0.0
16.77402933,-3.504961395,-5.500461731,1.604812775,6.716789239,0.0
16.78401133,-3.546125793,-5.225034485,0.9189390564,6.381257125,0.0
16.79399233,-3.275488586,-5.125940552,0.3305126953,6.092071131,0.0
16.80397433,-2.828218689,-5.10977417,-0.06062393188,5.840572599,0.0
16.81395633,-2.275717621,-5.004093933,-0.2474354553,5.502823919,0.0
16.82393833,-1.733844452,-4.671635284,-0.2429447937,4.988929243,0.0
16.83392033,-1.301244049,-4.262536011,-0.1803749084,4.460379404,0.0
16.84390133,-0.949176178,-4.074526978,-0.2781216431,4.192857875,0.0
16.85388333,-0.7264393616,-4.171525269,-0.826431427,4.314200519,0.0
16.86386533,-0.724044342,-4.449946289,-2.377206573,5.096800298,0.0
16.87384733,0.1196012878,-5.675148468,-5.503305817,7.906199435,0.0
16.88382833,3.189118195,-9.380842438,-11.09043732,14.87173425,0.0
16.89381033,8.069569244,-15.37273224,-16.07387421,23.66026788,0.0
16.90379712,13.30837509,-21.9743042,-17.5218132,31.09657265,0.0
16.91377913,16.33223694,-27.41309418,-13.40178085,34.60964354,0.0
16.92376012,16.43776749,-28.73709091,-8.271050262,34.12375809,0.0
16.93374213,13.83527939,-23.58046417,-5.792953491,27.94658399,0.0
16.94372412,10.67280579,-18.29106354,-2.366578674,21.30897659,0.0
16.95370513,7.706723785,-17.01421875,0.2935395813,18.680562,0.0
16.96368712,5.158722382,-17.75877045,0.4079017639,18.49737085,0.0
16.97366913,3.07969574,-16.57383453,-0.0137713623,16.85754154,0.0
16.98365113,0.7595205688,-14.37505692,-0.6444099426,14.40952452,0.0
16.99363212,-0.8765771484,-12.83236496,-1.678309937,12.97130303,0.0
17.00361413,-2.500849457,-10.62625259,-3.568878479,11.4851376,0.0
17.01359612,-3.574866028,-8.931476898,-2.681972809,9.987188035,0.0
17.02357813,-3.006048889,-8.813821564,1.111289062,9.378419049,0.0
17.03355912,-2.292931824,-7.283853149,2.611918488,8.070574406,0.0
17.04354113,-1.970202942,-4.706812134,2.408341827,5.642330233,0.0
17.05352313,-1.79371994,-2.76609787,2.764451294,4.302431825,0.0
17.06350512,-2.038760376,-1.326092377,3.533252563,4.289398389,0.0
17.07348613,-2.538421326,-0.1420545959,4.196523285,4.906584353,0.0
17.08346812,-3.019371185,0.6734495544,5.675148468,6.463547539,0.0
17.09345013,-3.745361481,0.5141807556,8.227790222,9.054758219,0.0
17.10343212,-3.993695068,-2.552192688,9.669741669,10.76880642,0.0
17.11341313,-3.356170807,-6.996600494,7.850275269,11.03825723,0.0
17.12339513,-2.887196045,-10.40007294,4.258195038,11.60300147,0.0
17.13337712,-2.239043884,-13.51853806,2.514770508,13.93155624,0.0
17.14335913,-1.837279358,-15.57301575,1.481768646,15.75087468,0.0
17.15334012,-1.830693054,-16.06130035,0.6393205261,16.17793364,0.0
17.16332213,-1.559906158,-15.05524246,0.8391549683,15.15908354,0.0
17.17330412,-1.137933655,-12.85152512,1.780996399,13.02415214,0.0
17.18328613,-0.7083270264,-10.92832443,2.20446579,11.17092975,0.0
17.19326713,-0.1513352966,-9.476194153,1.867067413,9.659559965,0.0
17.20324912,0.5189707947,-8.489595795,0.6497987366,8.530228944,0.0
17.21323113,1.252894592,-8.236472168,0.6071374512,8.353312787,0.0
17.22321312,2.072889404,-8.43630661,0.9270222473,8.736561678,0.0
17.23319413,2.79064682,-8.75813736,1.140628052,9.262489516,0.0
17.24317612,3.388952637,-9.410630493,2.043849792,10.20893179,0.0
17.25315813,3.980372772,-10.07794281,3.102149048,11.27083082,0.0
17.26313913,4.493356018,-10.57371185,3.528911591,12.01860423,0.0
17.27312112,4.811594238,-10.63478485,3.418441315,12.16288736,0.0
17.28310313,4.939428406,-10.22852966,2.664908295,11.66715511,0.0
17.29308512,4.988825684,-9.655371552,1.43686203,10.96262532,0.0
17.30306613,5.067711639,-9.085506592,0.1088237,10.40384419,0.0
17.31304812,5.098248138,-8.774603119,-0.7577243042,10.17644044,0.0
17.32303013,4.767885132,-9.276060333,-0.7548802185,10.4569531,0.0
17.33301213,4.248315582,-9.946665802,-0.5019062805,10.82756925,0.0
17.34299312,3.603456573,-9.936936035,-0.8821156311,10.60687159,0.0
17.35297513,2.775228882,-9.550140381,-2.283800812,10.20405913,0.0
17.36295712,2.125430145,-9.370214539,-2.2945784,9.87843428,0.0
17.37293913,2.124981079,-9.65911377,0.0339793396,9.89015561,0.0
17.38292012,2.007026367,-9.587861938,0.6285429382,9.815819763,0.0
17.39290213,1.826202393,-9.372010803,0.726738739,9.57589426,0.0
17.40288413,1.702858887,-9.324858856,0.9243278503,9.52402767,0.0
17.41286612,1.638043671,-9.389823761,1.126856689,9.598009342,0.0
17.42284713,1.666933594,-9.42859314,1.321302338,9.665550997,0.0
17.43282912,1.925895081,-9.400900726,1.423390045,9.701136302,0.0
17.44281113,2.450254669,-9.680219879,1.357377319,10.07734479,0.0
17.45279212,3.065325623,-10.15054184,1.263073425,10.67825245,0.0
17.46277413,3.687581635,-10.59511734,1.310225372,11.29475366,0.0
17.47275613,4.2321492,-10.76935501,1.419049072,11.65777828,0.0
17.48273812,4.461622009,-10.72085587,1.640738068,11.72752501,0.0
17.49271913,4.558021545,-10.73792038,2.092348938,11.85143108,0.0
17.50270112,4.706512756,-10.99313965,2.37062027,12.19098938,0.0
17.51268313,5.047054596,-11.75310928,2.191891937,12.97739297,0.0
17.52266412,5.850733337,-13.08069855,0.5239105225,14.33911564,0.0
17.53264613,7.906408539,-15.19969208,-9.469607849,19.57588844,0.0
17.54262813,7.940387878,-15.15568359,-8.290958862,19.01274582,0.0
17.55261012,5.60823761,-12.68162842,0.336051178,13.8704347,0.0
17.56259113,4.284240875,-11.01738922,3.113525391,12.2242229,0.0
17.57257312,3.721111908,-10.60185333,2.960244141,11.6193379,0.0
17.58255513,3.029250641,-11.53905441,1.259929962,11.99639778,0.0
17.59253712,2.379002838,-13.2339798,-0.5301974487,13.45655919,0.0
17.60251813,2.195933533,-15.06916351,0.4763095093,15.23576988,0.0
17.61250013,2.115401001,-16.74208466,2.634222107,17.07956223,0.0
17.62248212,1.790875854,-17.99752396,3.606600037,18.44249627,0.0
17.63246313,1.399140472,-18.82560196,3.095413055,19.12962271,0.0
17.64244512,0.9128018188,-19.30385742,2.184706879,19.44852341,0.0
17.65242713,0.160765686,-18.95792679,1.596130829,19.02567916,0.0
17.66240912,-0.7692503357,-18.20693848,0.6327342224,18.23416319,0.0
17.67239013,-1.524280243,-16.06653946,-0.7752378845,16.15729291,0.0
17.68237213,-1.507664795,-12.94822403,-1.134041748,13.08493826,0.0
17.69235412,-0.4153862,-10.56398209,-0.5102888489,10.5844536,0.0
17.70233613,0.6123765564,-9.331594849,1.790426788,9.521517502,0.0
17.71231712,0.6481521606,-8.076305237,3.297642517,8.747642749,0.0
17.72229913,0.2920426941,-7.077282715,3.161126404,7.756670658,0.0
17.73228112,0.09445358276,-6.603218536,2.089654541,6.926620577,0.0
17.74226213,0.009280700684,-6.277046814,0.8527766418,6.334716319,0.0
17.75224413,-0.08846603394,-6.18274292,-0.24923172,6.188396618,0.0
17.76222612,-0.2977308655,-6.351142731,-0.9728269958,6.432110852,0.0
17.77220813,-0.5436694336,-6.647975464,-1.108145599,6.761593073,0.0
17.78218912,-0.7436535645,-7.154971161,-0.8018824768,7.238069386,0.0
17.79217113,-1.052760773,-7.5154216,-0.4511618042,7.602197975,0.0
17.80215312,-1.501377869,-7.635921021,0.08951385498,7.782636961,0.0
17.81213413,-1.942510529,-7.552095337,0.9270222473,7.852825057,0.0
17.82211612,-2.327060852,-7.188351746,1.689087524,7.742133407,0.0
17.83209812,-2.647095337,-6.66010025,1.983674927,7.436330767,0.0
17.84208013,-2.822829895,-6.069578247,1.748663635,6.918523919,0.0
17.85206112,-2.884950714,-5.522316284,1.263522491,6.357311291,0.0
17.86204313,-2.818039856,-5.048401794,0.8131091309,5.838566242,0.0
17.87202512,-2.616109772,-4.625680847,0.5394781494,5.341534453,0.0
17.88200613,-2.354603577,-4.120331726,0.2782713318,4.753811783,0.0
17.89198812,-2.083367615,-3.466491394,-0.03263214111,4.044508383,0.0
17.90196546,-1.797312469,-2.808459778,-0.2671943665,3.345021863,0.0
17.91194746,-1.42638382,-2.361788635,-0.3468287659,2.780810413,0.0
17.92192846,-1.015039215,-2.26883194,-0.3372486877,2.508314106,0.0
17.93191046,-0.729433136,-2.412233734,-0.5974076843,2.589949851,0.0
17.94189246,-0.7680528259,-2.742297363,-1.63460083,3.283598612,0.0
17.95187346,-0.6804849243,-3.768563232,-4.141587524,5.640733622,0.0
17.96185546,1.514251099,-7.215595093,-9.203610992,11.79254952,0.0
17.97183746,5.998326416,-13.32573898,-16.10920074,21.74997903,0.0
17.98181946,11.95264435,-21.28528702,-19.87237518,31.47761817,0.0
17.99180046,15.56358536,-28.41226639,-15.78662155,36.03747342,0.0
18.00178246,16.35498962,-31.52219925,-10.55619827,37.04818556,0.0
18.01176446,14.21384216,-26.73754898,-7.776478729,31.2634524,0.0
18.02174546,10.93101883,-20.11142807,-3.065175934,23.09441524,0.0
18.03172746,8.068222046,-17.57195892,0.7146139526,19.34891781,0.0
18.04170946,5.228177948,-17.85217621,1.473535767,18.66026119,0.0
18.05169146,2.526745605,-16.67203033,0.8593629456,16.88429873,0.0
18.06167246,0.1874102783,-14.93085114,-0.00628692627,14.93202859,0.0
18.07165446,-1.236877899,-13.63230148,-1.106499023,13.73294764,0.0
18.08163646,-2.880310364,-10.91215805,-3.362457733,11.77614127,0.0
18.09161746,-3.655697937,-7.891739044,-2.058818665,8.937695835,0.0
18.10159946,-2.985990601,-6.909182281,2.267484741,7.860943119,0.0
18.11158146,-2.221081238,-5.611231384,3.573818207,7.013650696,0.0
18.12156346,-1.977837067,-3.450175323,3.365900574,5.210070623,0.0
18.13154446,-1.732646942,-1.878743134,3.797752533,4.577626622,0.0
18.14152646,-1.45093277,-1.378483429,4.367018738,4.803777172,0.0
18.15150846,-1.536554718,-1.196461945,5.165009308,5.519949523,0.0
18.16148946,-2.022893372,-1.051563263,6.402485962,6.796301154,0.0
18.17147146,-2.502046967,-2.349813538,7.851472778,8.56898404,0.0
18.18145346,-3.066523132,-4.954546967,8.469238129,10.28003377,0.0
18.19143446,-2.94976593,-8.240214386,7.54116806,11.55298524,0.0
18.20141646,-2.334245911,-11.55132889,4.806953888,12.72747849,0.0
18.21139846,-1.9282901,-14.13525558,3.00709671,14.5796565,0.0
18.22138046,-1.807640991,-15.5471196,1.796713715,15.75463976,0.0
18.23136146,-1.741179199,-15.38276138,0.6069877625,15.49288504,0.0
18.24134346,-1.410067749,-13.60805191,0.122744751,13.68146316,0.0
18.25132546,-1.067879333,-11.01783829,0.2128573608,11.07151458,0.0
18.26130646,-0.8252339172,-8.94644577,0.2619552612,8.988243627,0.0
18.27128846,-0.5610333252,-7.610174561,0.04490661621,7.630958776,0.0
18.28127046,-0.04655319214,-7.140601044,-0.5538482666,7.162199269,0.0
18.29125146,0.650098114,-7.502997437,-0.1218466187,7.53209431,0.0
18.30123346,1.41934845,-8.197104034,0.2014810181,8.321517841,0.0
18.31121546,2.193388824,-9.023236084,0.4297563171,9.295936449,0.0
18.32119746,2.983595581,-10.10054581,1.322649536,10.6147195,0.0
18.33117846,3.720513153,-11.16168915,2.428549805,12.01346648,0.0
18.34116046,4.28019928,-11.86597458,3.230731659,13.02148554,0.0
18.35114246,4.717440033,-12.07389221,3.669319611,13.47208299,0.0
18.36112346,5.066813507,-11.71448959,3.567531281,13.25251467,0.0
18.37110546,5.276078339,-10.89180038,2.586471405,12.37570816,0.0
18.38108746,6.681655426,-10.29184799,-7.923922119,14.60668327,0.0
