"Time (s)","Acceleration x (m/s^2)","Acceleration y (m/s^2)","Acceleration z (m/s^2)","Absolute acceleration (m/s^2)"
4.474666668E-3,-1.710193634E0,7.104226685E0,7.797584839E0,1.068630565E1
1.441666667E-2,-1.552421722E0,7.442373505E0,8.526419220E0,1.142360544E1
2.435766667E-2,-1.684447174E0,7.595355377E0,9.821675720E0,1.252964882E1
3.429866667E-2,-1.736987915E0,7.565717010E0,1.103984253E1,1.349575207E1
4.424066667E-2,-1.790726166E0,7.341183929E0,1.193842392E1,1.412889406E1
5.418166667E-2,-1.765877838E0,7.019802246E0,1.255484207E1,1.449206706E1
6.412266666E-2,-1.482666779E0,6.669231262E0,1.288550446E1,1.458468963E1
7.406366669E-2,-1.118623810E0,6.373446350E0,1.310434937E1,1.461492764E1
8.400566666E-2,-8.235873413E-1,6.237828369E0,1.306917252E1,1.450489811E1
9.394666666E-2,-6.867718506E-1,6.151757355E0,1.261561569E1,1.405238533E1
1.038876667E-1,-6.351292419E-1,5.955216064E0,1.186941742E1,1.329477557E1
1.138296667E-1,-6.042933655E-1,5.716013489E0,1.100855759E1,1.241878902E1
1.237706667E-1,-4.285588074E-1,5.348078613E0,1.011296997E1,1.144804652E1
1.337116667E-1,7.993377686E-2,4.934937744E0,9.195078735E0,1.043597015E1
1.436536667E-1,4.357438660E-1,4.725373535E0,8.435707855E0,9.678852968E0
1.535946667E-1,4.122427368E-1,4.716242523E0,7.963290253E0,9.264279749E0
1.635356667E-1,9.370513916E-2,4.897515564E0,7.849526825E0,9.252540771E0
1.734766667E-1,-2.848576355E-1,5.035378876E0,8.029003601E0,9.481618170E0
1.834186667E-1,-4.926255798E-1,5.018763428E0,8.256979523E0,9.675142229E0
1.933596667E-1,-4.409829712E-1,4.833299103E0,8.347241821E0,9.655655971E0
2.033006667E-1,-2.266287231E-1,4.582720184E0,8.230783997E0,9.423295075E0
2.132426667E-1,-5.493576050E-2,4.371210022E0,7.927065582E0,9.052561170E0
2.231836667E-1,-1.047821045E-2,4.326453094E0,7.472910004E0,8.634969027E0
2.331246667E-1,-6.990463257E-2,4.386777649E0,6.988666992E0,8.251676868E0
2.430656667E-1,-8.981323242E-2,4.459376678E0,6.473139038E0,7.861020022E0
2.530076667E-1,-6.002517700E-2,4.591701508E0,5.875581665E0,7.457196904E0
2.629486667E-1,2.814147949E-2,4.670737152E0,5.239254913E0,7.019000608E0
2.728896667E-1,9.160949707E-2,4.671485596E0,4.839885406E0,6.727232768E0
2.828316667E-1,6.601272583E-2,4.666096802E0,4.733905792E0,6.647306304E0
2.927726667E-1,-5.194198608E-2,4.594395905E0,4.843178558E0,6.675893217E0
3.027136667E-1,-1.537303162E-1,4.555177460E0,5.052742767E0,6.804666353E0
3.126546667E-1,-1.802252197E-1,4.631818085E0,5.500312042E0,7.193028045E0
3.225966667E-1,-7.574249268E-2,4.831502838E0,6.385571136E0,8.007788417E0
3.325376667E-1,3.764671326E-1,4.995262299E0,7.366631012E0,8.908514208E0
3.424786667E-1,1.037193146E0,4.776567078E0,8.181536407E0,9.530419752E0
3.524206667E-1,1.376238098E0,4.243974609E0,8.460705872E0,9.564982783E0
3.623616667E-1,1.021775208E0,3.713477783E0,8.821156311E0,9.625317682E0
3.723026667E-1,4.685256958E-2,3.645818481E0,9.197174377E0,9.893543556E0
3.822446667E-1,-4.581971741E-1,3.619922333E0,9.816735992E0,1.047292165E1
3.921856667E-1,-7.982899475E-1,3.350632324E0,1.102173019E1,1.154740405E1
4.021266667E-1,-1.113684082E0,1.790426788E0,1.178574142E1,1.197287022E1
4.120676667E-1,-2.133962402E0,-6.584806824E-1,1.173484726E1,1.194546075E1
4.220096667E-1,-4.191882935E0,-8.481362915E-1,1.114686996E1,1.193917617E1
4.319506667E-1,-4.573140106E0,2.784210205E-2,1.040007294E1,1.136115763E1
4.418916667E-1,-4.098177795E0,-8.493338013E-1,1.012823822E1,1.095890682E1
4.518336667E-1,-3.565735016E0,-2.552342377E0,9.543254700E0,1.050250580E1
4.617746667E-1,-3.702251129E0,-3.659589844E0,8.788075104E0,1.021418256E1
4.717156667E-1,-4.298760681E0,-4.039649506E0,7.507937164E0,9.548153329E0
4.816566667E-1,-4.745431824E0,-3.858376465E0,6.008505249E0,8.573699754E0
4.915986667E-1,-4.328997803E0,-4.052373047E0,2.269879761E0,6.349354567E0
5.015396667E-1,-2.784808960E0,-3.520978088E0,-1.713786163E0,4.805154592E0
5.114806667E-1,-1.659748535E0,-2.499951324E0,-1.291813660E-1,3.003532861E0
5.214226667E-1,8.173004150E-2,-2.579136658E0,3.243754578E0,4.144945049E0
5.313636667E-1,2.097588043E0,-3.046614532E0,6.959328003E0,7.881242412E0
5.413046667E-1,3.657494202E0,-3.728596344E0,6.910679169E0,8.662400424E0
5.512466667E-1,4.243974609E0,-3.834126892E0,6.962471466E0,9.010430535E0
5.611876667E-1,2.743644562E0,-4.176764374E0,6.585405579E0,8.266832087E0
5.711286667E-1,1.075064392E0,-4.145329742E0,5.731581116E0,7.154756754E0
5.810696667E-1,2.457888794E-1,-3.684288483E0,5.009632416E0,6.223408290E0
5.910116667E-1,-4.188290405E-1,-3.110830994E0,4.988226929E0,5.893648711E0
6.009526667E-1,-3.649411011E-1,-2.825075226E0,4.999004517E0,5.753631740E0
6.108936667E-1,-4.950205994E-1,-3.023861847E0,4.275109863E0,5.259786137E0
6.208357083E-1,-1.306932220E0,-3.154839478E0,3.949087830E0,5.220764182E0
6.307767083E-1,-1.776655426E0,-3.253035278E0,4.202810211E0,5.603780572E0
6.407177083E-1,-2.097288666E0,-4.256249084E0,4.750820618E0,6.714504640E0
6.506597083E-1,-2.658172302E0,-4.618046722E0,4.995861053E0,7.304167522E0
6.606007083E-1,-3.679199066E0,-4.180207214E0,4.910388794E0,7.424456629E0
6.705417083E-1,-4.778812408E0,-3.593726807E0,5.405708771E0,8.060620802E0
6.804827084E-1,-5.623805237E0,-2.807861023E0,5.752836914E0,8.520938999E0
6.904247083E-1,-6.448889465E0,-2.367776184E0,6.067632294E0,9.165735161E0
7.003657084E-1,-8.284522247E0,-2.931803284E0,6.672524414E0,1.103409994E1
7.103067084E-1,-1.103400467E1,-4.007915497E0,7.946375427E0,1.417594893E1
7.202487084E-1,-1.198841995E1,-4.285139008E0,8.962462463E0,1.556953316E1
7.301897084E-1,-1.397179550E1,-5.404062195E0,1.120120697E1,1.870513286E1
7.401307083E-1,-1.847098938E1,-6.950196991E0,1.263477585E1,2.343331491E1
7.500717083E-1,-2.111404312E1,-7.769593048E0,1.228585144E1,2.563418691E1
7.600137084E-1,-2.335293732E1,-7.780969391E0,1.085168381E1,2.690097038E1
7.699547083E-1,-2.550650894E1,-5.551655273E0,7.214247894E0,2.708224967E1
7.798957083E-1,-2.671419754E1,-3.637286224E0,5.854924622E0,2.758909827E1
7.898377083E-1,-2.850058273E1,-2.794688416E0,7.011569366E0,2.948314102E1
7.997787083E-1,-2.949271957E1,-2.392175446E0,8.558302917E0,3.080239536E1
8.097197083E-1,-2.905981979E1,-1.528022461E0,9.919572144E0,3.074420093E1
8.196617083E-1,-2.852887390E1,-4.715194702E-2,1.104373444E1,3.059187702E1
8.296027083E-1,-2.775887512E1,1.348096619E0,1.170251450E1,3.015495578E1
8.395437083E-1,-2.735785904E1,2.865491180E0,1.058269318E1,2.947298570E1
8.494847083E-1,-2.618504791E1,5.145100708E0,8.879085846E0,2.812413485E1
8.594267083E-1,-2.382580399E1,6.856042786E0,7.585924988E0,2.592721574E1
8.693677083E-1,-2.158137131E1,7.540269928E0,8.254734192E0,2.430538818E1
8.793087083E-1,-1.714220261E1,7.899672546E0,8.743318176E0,2.080157564E1
8.892507083E-1,-1.212718140E1,8.641230469E0,8.306077423E0,1.705081566E1
8.991917083E-1,-7.117698669E0,8.959169312E0,6.954987030E0,1.339030223E1
9.091327083E-1,-3.777694244E0,8.450527039E0,5.381459198E0,1.070712306E1
9.190747083E-1,-1.864672394E0,6.815776520E0,5.775739288E0,9.126389047E0
9.290157083E-1,2.303110657E0,2.979853363E0,1.287846909E1,1.341785418E1
9.389567083E-1,5.667065277E0,-3.185226288E0,1.723261459E1,1.841804281E1
9.488977084E-1,6.226152649E0,-6.821165314E0,1.410681473E1,1.686106446E1
9.588397083E-1,4.451742554E0,-5.345084839E0,9.123228149E0,1.147262985E1
9.687807084E-1,5.196593628E0,-2.881058807E0,3.808530121E0,7.057619065E0
9.787217084E-1,7.054080963E0,-3.325035553E0,6.516698456E0,1.016283811E1
9.886637084E-1,2.698887634E0,7.035369873E-3,-3.836821289E0,4.690974479E0
9.986047084E-1,4.088148651E0,1.859732666E0,-4.713548126E0,6.510691278E0
1.008545708E0,1.676962738E0,2.144141235E0,-1.325493622E0,3.027619362E0
1.018487708E0,-2.469863892E-2,1.503323822E0,-2.744692383E0,3.129525333E0
1.028428708E0,-7.050338745E-2,7.852670288E-1,-1.215023346E0,1.448411808E0
1.038369708E0,-1.098715210E0,2.127076721E-1,-5.553451538E-2,1.120492637E0
1.048310708E0,-1.919757843E0,-3.442840576E-2,7.062313843E-1,2.045829479E0
1.058252708E0,-3.065774689E0,-3.445834351E-1,2.867886200E0,4.212182741E0
1.068193708E0,-2.721939697E0,-2.649490356E-2,2.437830505E0,3.654131260E0
1.078134708E0,6.956034851E-1,8.970845032E-1,1.510508881E0,1.889513666E0
1.088076708E0,2.946921844E0,1.628912659E0,1.481918335E-1,3.370410305E0
1.098017708E0,6.307882690E-1,1.922452240E0,-1.059796143E-1,2.026067159E0
1.107958708E0,-2.695145416E0,9.845027161E-1,1.148711243E0,3.090726764E0
1.117900708E0,-4.596940613E0,-4.745132446E-1,3.473526764E0,5.781212156E0
1.127841708E0,-8.254584503E0,-1.850302277E0,4.870421906E0,9.761290559E0
1.137782708E0,-1.418345535E1,-3.962859192E0,5.050198059E0,1.556853105E1
1.147723708E0,-2.159768738E1,-8.368647308E0,4.249363403E0,2.354891605E1
1.157665708E0,-2.692136673E1,-1.423913956E1,-2.347119141E-1,3.045600387E1
1.167606708E0,-2.710668137E1,-1.515194138E1,-1.142933258E1,3.309052954E1
1.177547708E0,-3.659604813E1,-1.428389648E1,-1.164503403E1,4.097447077E1
1.187489708E0,-3.860517014E1,-1.255723709E1,-5.404211884E0,4.095422897E1
1.197430708E0,-3.577440674E1,-7.765401764E0,-6.183491364E0,3.712607180E1
1.207371708E0,-3.422273346E1,-4.409230957E0,-3.621419220E0,3.469512185E1
1.217313708E0,-3.285158478E1,-2.255060577E0,-1.883233795E0,3.298269986E1
1.227254708E0,-2.945065704E1,-1.815275116E0,-5.863307190E-1,2.951237381E1
1.237195708E0,-2.594345032E1,-2.785707092E0,1.851649475E0,2.615819918E1
1.247136708E0,-2.251453079E1,-3.070714417E0,2.680326233E0,2.288050551E1
1.257078708E0,-1.649869080E1,-2.277513885E0,2.527494049E0,1.684583312E1
1.267019708E0,-1.027268784E1,-1.240470428E0,3.138224030E0,1.081273935E1
1.276960708E0,-5.859564972E0,-9.514215088E-1,3.573518829E0,6.928906218E0
1.286902708E0,-3.137475586E0,-1.180145874E0,2.977608032E0,4.483597543E0
1.296843708E0,-7.050338745E-1,-1.158590698E0,2.330354004E0,2.696285399E0
1.306784708E0,1.139280853E0,-1.227597198E0,2.345322876E0,2.881925595E0
1.316726708E0,2.390229492E0,-1.813778229E0,2.970722351E0,4.222342925E0
1.326667708E0,3.692371674E0,-2.570305023E0,3.716920624E0,5.835715501E0
1.336608708E0,5.373675385E0,-3.304528198E0,4.748425598E0,7.895811511E0
1.346550708E0,7.096742249E0,-4.276007996E0,5.457351379E0,9.921223664E0
1.356491708E0,7.984246674E0,-5.147944794E0,4.871170349E0,1.067604005E1
1.366432708E0,8.854387207E0,-5.820047150E0,3.619323578E0,1.119699177E1
1.376373708E0,9.330846405E0,-5.536536713E0,2.431842957E0,1.111898348E1
1.386315708E0,9.112899628E0,-3.903881836E0,1.203796692E0,9.986709142E0
1.396256708E0,7.763156433E0,-2.018253021E0,-1.362167358E-2,8.021229869E0
1.406197708E0,6.692882080E0,-7.036866760E-1,-1.010847931E0,6.805267005E0
1.416139708E0,5.806275787E0,-1.043929138E0,-1.813179474E0,6.171729609E0
1.426080708E0,2.551593933E0,-2.672692108E0,-1.586700439E0,4.021384462E0
1.436021708E0,-2.156864777E0,-3.528761902E0,-1.208586731E0,4.308701441E0
1.445963708E0,-5.962101746E0,-2.049238586E0,-2.271376648E0,6.701133328E0
1.455904708E0,-1.033091675E1,9.379495239E-1,-3.182980957E0,1.085075840E1
1.465845708E0,-1.331121918E1,3.113226013E0,-1.800455933E0,1.378848700E1
1.475786708E0,-1.313683182E1,3.755839691E0,7.608677673E-1,1.368435610E1
1.485728708E0,-1.360251343E1,2.364932098E0,1.926344147E0,1.394030406E1
1.495669708E0,-1.375534561E1,-3.897894287E-1,2.140249329E0,1.392631092E1
1.505610708E0,-1.316123108E1,-2.609523468E0,2.505789185E0,1.364941741E1
1.515552708E0,-1.257699600E1,-4.188739471E0,2.241738281E0,1.344439502E1
1.525493708E0,-1.356060059E1,-5.243745575E0,1.942211151E0,1.466829711E1
1.535434708E0,-1.494387405E1,-5.642516327E0,2.023641815E0,1.610131946E1
1.545376708E0,-1.588047638E1,-5.485043793E0,2.293680267E0,1.695689254E1
1.555317708E0,-1.651066589E1,-6.165528717E0,2.700683899E0,1.783001756E1
1.565258708E0,-1.745684830E1,-6.969207458E0,2.469115448E0,1.895805729E1
1.575199708E0,-1.888832153E1,-7.889044647E0,2.032772827E0,2.057031553E1
1.585141708E0,-1.971415421E1,-1.283386185E1,2.643053741E0,2.367153605E1
1.595082708E0,-2.025138702E1,-1.689401871E1,1.866019592E0,2.643877027E1
1.605023708E0,-1.847188751E1,-1.682097061E1,2.517764282E-1,2.498437656E1
1.614965708E0,-1.597792374E1,-1.775742325E1,7.402107239E-1,2.389912214E1
1.624910292E0,-1.534489014E1,-1.902528671E1,2.333347778E0,2.455344578E1
1.634851292E0,-1.572569824E1,-2.076766342E1,3.120710449E0,2.623608703E1
1.644793292E0,-1.657832520E1,-2.161984131E1,3.621868286E0,2.748411058E1
1.654734292E0,-1.707469299E1,-2.104862915E1,3.855532379E0,2.737617687E1
1.664675292E0,-1.676902863E1,-1.942764999E1,3.514541473E0,2.590339567E1
1.674616292E0,-1.518771698E1,-1.635888153E1,2.681074677E0,2.248261358E1
1.684558292E0,-1.246113693E1,-1.299507660E1,2.037263489E0,1.811911676E1
1.694499292E0,-9.138945465E0,-1.095736404E1,1.618733826E0,1.435982069E1
1.704440292E0,-6.390660553E0,-9.759554901E0,1.121018829E0,1.171947684E1
1.714382292E0,-4.693639526E0,-8.378975830E0,9.819580078E-1,9.654104282E0
1.724323292E0,-2.457589417E0,-8.903934174E0,3.758683777E-1,9.244515485E0
1.734264292E0,-2.076631622E0,-7.139852600E0,-1.648072815E-1,7.437543646E0
1.744206292E0,-1.194515991E0,-5.201832733E0,1.310375061E0,5.495726980E0
1.754147292E0,8.234376526E-1,-2.622097321E0,3.854634247E0,4.734094328E0
1.764088292E0,1.862127686E0,3.963757324E-1,5.714815979E0,6.023599830E0
1.774030292E0,4.882846069E-1,1.471739502E0,6.152505798E0,6.344900836E0
1.783971292E0,-2.745291138E0,1.434467010E0,6.413562927E0,7.122366774E0
1.793912292E0,-4.475243683E0,1.637444916E0,5.842650146E0,7.539601621E0
1.803853292E0,-4.458179169E0,2.118993530E0,4.980742493E0,7.012366994E0
1.813795292E0,-3.665727081E0,3.375031586E0,1.985321503E0,5.363757518E0
1.823736292E0,-4.713548126E0,4.710404663E0,2.544708252E0,7.133091063E0
1.833677292E0,-6.564149780E0,4.539310455E0,3.706442413E0,8.799495276E0
1.843619292E0,-5.999673615E0,4.270619202E0,4.036056976E0,8.397858522E0
1.853560292E0,-3.774101715E0,3.442690887E0,3.746259613E0,6.334857961E0
1.863501292E0,-1.340612183E0,2.443069611E0,2.443219299E0,3.706096422E0
1.873443292E0,5.089416504E-2,1.697470093E0,1.554517365E0,2.302285640E0
1.883384292E0,8.020321655E-1,1.211580505E0,1.172212372E0,1.866886381E0
1.893325292E0,6.724017334E-1,1.075064392E0,6.809339905E-1,1.439291019E0
1.903267292E0,-5.011578369E-1,1.424886932E0,6.242019653E-1,1.634346977E0
1.913208292E0,-1.761985931E0,1.551074524E0,7.146139526E-1,2.453792922E0
1.923149292E0,-2.589315491E0,1.703158264E0,7.149133301E-1,3.180629474E0
1.933090292E0,-2.490221558E0,1.729054413E0,8.147557068E-1,3.139213187E0
1.943032292E0,-8.925938416E-1,1.025667114E0,5.972579956E-1,1.485070338E0
1.952973292E0,2.914439392E-1,3.592529297E-1,2.754272461E-2,4.634229589E-1
1.962914292E0,6.533912659E-1,5.957611084E-2,-5.935157776E-1,8.847205421E-1
1.972856292E0,7.574249268E-1,-7.484436035E-4,-9.351054382E-1,1.203376608E0
1.982797292E0,5.713618469E-1,1.134640503E-1,-7.605683899E-1,9.580149929E-1
1.992738292E0,-4.231700134E-1,-2.098486176E0,-4.171824646E-1,2.180999381E0
2.002680292E0,-9.160949707E-1,-6.489604797E0,2.818638611E-1,6.560003632E0
2.012621292E0,-4.177363129E0,-1.536000870E1,1.433868256E0,1.598237179E1
2.022562292E0,-1.158126663E1,-2.561009354E1,2.604134674E0,2.822736518E1
2.032503292E0,-1.653222107E1,-3.780583237E1,6.564449158E0,4.178142275E1
2.042445292E0,-1.778287033E1,-4.385101135E1,1.307081909E1,4.909162847E1
2.052386292E0,-1.670705750E1,-4.534041412E1,1.919727905E1,5.199436937E1
2.062327292E0,-1.587778198E1,-4.437522125E1,2.291569656E1,5.240604327E1
2.072269292E0,-8.406368866E0,-3.302791809E1,1.933409454E1,3.918312931E1
2.082210292E0,3.523522797E0,-1.969918533E1,2.048085983E1,2.863457238E1
2.092151292E0,9.752669220E0,-1.513727188E1,3.172338089E1,3.647772542E1
2.102093292E0,6.286626892E0,-1.401819901E1,3.187306961E1,3.538254015E1
2.112034292E0,6.646179199E-1,-1.485136642E1,2.446033447E1,2.862363995E1
2.121975292E0,-3.434607697E0,-1.280227753E1,1.503757919E1,2.004553885E1
2.131917292E0,-5.460494843E0,-1.082054855E1,7.166197815E0,1.408032905E1
2.141858292E0,-4.940027161E0,-1.108714417E1,2.727029114E0,1.244047113E1
2.151799292E0,-4.261338501E0,-9.518705750E0,1.695823517E0,1.056601071E1
2.161740292E0,-2.963986359E0,-8.947194214E0,8.532257080E-2,9.425750865E0
2.171682292E0,-2.669997711E0,-5.886808319E0,-3.109633484E0,7.173090015E0
2.181623292E0,-3.380270691E0,-1.904938660E0,-4.126918030E0,5.664492357E0
2.191564292E0,-2.531835022E0,2.633024597E-1,-2.780018921E0,3.769352990E0
2.201506292E0,-7.602690125E-1,1.076112213E0,-9.831555176E-1,1.643965096E0
2.211447292E0,3.225791931E-1,2.209405518E0,5.025050354E-1,2.288676777E0
2.221388292E0,5.697152710E-1,3.218756561E0,1.892364807E0,3.777037709E0
2.231330292E0,2.731819153E-1,3.820505219E0,2.736758881E0,4.707519268E0
2.241271292E0,-3.242257690E-1,4.182302856E0,2.835254059E0,5.063145772E0
2.251212292E0,-4.914280701E-1,4.015399933E0,2.897075500E0,4.975739606E0
2.261154292E0,-5.047503662E-1,3.788322144E0,2.522105255E0,4.578992522E0
2.271095292E0,-9.403445435E-1,3.793710938E0,1.751956787E0,4.283204772E0
2.281036292E0,-1.250499573E0,3.428021393E0,1.116378479E0,3.815937730E0
2.290978292E0,-1.196461945E0,2.574945374E0,8.533753967E-1,2.964812714E0
2.300919292E0,-7.779322815E-1,1.665287018E0,7.577243042E-1,1.988090945E0
2.310860292E0,-4.107458496E-1,1.003213806E0,5.592370605E-1,1.219793500E0
2.320801292E0,7.035369873E-2,3.424877930E-1,3.014730835E-1,4.616638943E-1
2.330743292E0,4.679269409E-1,-3.354524231E-1,-7.484436035E-3,5.757950738E-1
2.340684292E0,6.650669861E-1,-1.141077118E0,-6.105802917E-1,1.455053050E0
2.350625292E0,5.864804077E-1,-2.310445404E0,-1.315913544E0,2.722819437E0
2.360567292E0,2.475851440E-1,-3.315305786E0,-1.678759003E0,3.724349963E0
2.370508292E0,-2.526745605E-1,-4.000880127E0,-1.715582428E0,4.360517090E0
2.380449292E0,-3.962260437E-1,-4.574487305E0,-1.518292694E0,4.836128812E0
2.390391292E0,-2.231858826E-1,-5.266348572E0,-1.250499573E0,5.417378370E0
2.400332292E0,-1.676513672E-1,-6.768025818E0,-1.164578247E0,6.869535861E0
2.410273292E0,-6.316864014E-2,-9.111851807E0,-1.320703583E0,9.207284702E0
2.420215292E0,-2.167492676E-1,-1.183334244E1,-4.285588074E-1,1.184308390E1
2.430156292E0,-2.302362213E0,-1.614347946E1,5.189558258E0,1.711269458E1
2.440097292E0,-5.564079437E0,-2.245645157E1,1.485900055E1,2.749620145E1
2.450038292E0,-4.530478821E0,-2.436004303E1,1.120869141E1,2.719506753E1
2.459980292E0,-3.815116425E0,-2.229912872E1,4.908293152E0,2.314946213E1
2.469921292E0,-4.508474579E0,-2.260599060E1,2.999312897E0,2.324549487E1
2.479862292E0,-6.954388275E0,-2.777144897E1,2.218985596E0,2.871481833E1
2.489804292E0,-6.824159088E0,-2.683035599E1,8.969348145E-1,2.769912709E1
2.499745292E0,-7.801925812E0,-2.277184570E1,1.123413849E0,2.409749078E1
2.509686292E0,-1.123084534E1,-2.223206818E1,2.804118805E0,2.506511170E1
2.519628292E0,-1.307860291E1,-2.391516815E1,4.534370728E0,2.763232961E1
2.529569292E0,-1.016146912E1,-2.383613251E1,6.311774597E0,2.666936756E1
2.539510292E0,-2.804567871E0,-1.878159348E1,7.000941467E0,2.023924494E1
2.549452292E0,1.247206421E0,-1.282952087E1,5.374723206E0,1.396566430E1
2.559393292E0,1.151405640E0,-8.008196869E0,2.278711395E0,8.405324364E0
2.569334292E0,1.535057831E0,-9.188941498E0,1.717977448E0,9.473357108E0
2.579275292E0,2.279010773E0,-1.213047455E1,1.090931396E0,1.239082056E1
2.589217292E0,2.754422150E0,-1.466754868E1,5.785469055E-1,1.493514453E1
2.599158292E0,3.143612823E0,-1.688369019E1,4.092489624E-1,1.717873047E1
2.609099292E0,3.520379333E0,-1.679971481E1,2.526745605E-1,1.716645953E1
2.619041333E0,3.081342316E0,-1.418644913E1,-4.962181091E-1,1.452570968E1
2.628982333E0,1.817221069E0,-1.036115387E1,-1.112486572E0,1.057796901E1
2.638923333E0,6.150709534E-1,-6.859934692E0,-1.088835754E0,6.972989284E0
2.648865333E0,-1.796264648E-1,-4.372557220E0,-6.450086975E-1,4.423523317E0
2.658806333E0,-5.324427795E-1,-2.536026306E0,-2.020797729E-1,2.599184675E0
2.668747333E0,-7.075785828E-1,-1.180445251E0,4.715194702E-2,1.377077249E0
2.678688333E0,-8.318202209E-1,-1.613644409E-1,2.032772827E-1,8.713696210E-1
2.688630333E0,-8.494834900E-1,6.279441833E-1,1.612147522E-1,1.068609514E0
2.698571333E0,-5.221142578E-1,1.088386688E0,1.095721436E-1,1.212103517E0
2.708512333E0,-3.258723450E-1,1.267264709E0,1.471440125E-1,1.316739910E0
2.718454333E0,-3.248245239E-1,1.342857513E0,1.517843628E-1,1.389897754E0
2.728395333E0,-3.050656128E-1,1.365310822E0,1.983375549E-1,1.412967251E0
2.738336333E0,-2.305206299E-1,1.341210938E0,2.906954956E-1,1.391578388E0
2.748278333E0,-1.466949463E-1,1.340612183E0,4.023632813E-1,1.407358036E0
2.758219333E0,-1.026864624E-1,1.397793274E0,5.327421570E-1,1.499394795E0
2.768160333E0,-1.145118713E-1,1.480870514E0,6.650669861E-1,1.627391945E0
2.778102333E0,-1.061293030E-1,1.535506897E0,7.454498291E-1,1.710187214E0
2.788043333E0,-1.285826111E-1,1.428030396E0,8.972341919E-1,1.691399862E0
2.797984333E0,-1.923799438E0,9.304650879E-1,1.946851501E0,2.890847683E0
2.807926333E0,-5.579347687E0,1.204994202E0,2.852318573E0,6.380975856E0
2.817867333E0,-4.883444824E0,5.742059326E-1,3.373834076E0,5.963262712E0
2.827808333E0,-5.174739075E-1,-1.181193695E0,3.141367493E0,3.395760226E0
2.837750333E0,1.679208069E0,-2.705024872E0,2.529140625E0,4.066134724E0
2.847691333E0,2.257455597E0,-3.687581635E0,1.334175568E0,4.524863371E0
2.857632333E0,3.505709839E0,-5.325625305E0,3.852987671E-1,6.387545812E0
2.867573333E0,8.018375702E0,-9.863289185E0,-2.397115173E0,1.293541586E1
2.877515333E0,1.677950684E1,-1.964619553E1,-8.424630890E0,2.717534276E1
2.887456333E0,2.756517792E1,-3.262106415E1,-1.422955948E1,4.501614402E1
2.897397333E0,3.394461182E1,-4.407479599E1,-1.359008926E1,5.726704846E1
2.907339333E0,3.091251709E1,-5.083818146E1,1.879341888E1,6.239628995E1
2.917280333E0,2.956591736E1,-4.605742310E1,3.870860504E1,6.703570538E1
2.927221333E0,1.282203644E1,-3.255086014E1,1.191432404E1,3.695827690E1
2.937163333E0,7.742499390E0,-2.327839233E1,-2.606529694E0,2.467030287E1
2.947104333E0,8.998387756E0,-1.694865509E1,-5.322930908E0,1.991385159E1
2.957045333E0,7.131020966E0,-1.129835495E1,-5.766009521E0,1.455167174E1
2.966987333E0,5.802982635E0,-7.405699768E0,-4.664899292E0,1.050144190E1
2.976928333E0,4.788093109E0,-4.966821442E0,-2.773282928E0,7.435472349E0
2.986869333E0,2.973566437E0,-3.362607422E0,-1.628613281E0,4.775102852E0
2.996810333E0,1.242117004E0,-2.318977661E0,-1.337917786E0,2.951361728E0
3.006752333E0,3.294648743E-1,-1.903441772E0,-1.573078766E0,2.491227506E0
3.016693333E0,2.513273621E-1,-2.357148285E0,-2.021396484E0,3.115342233E0
3.026634333E0,5.716612244E-1,-3.222349091E0,-2.486928406E0,4.110370192E0
3.036576333E0,1.396296387E0,-4.763843536E0,-2.462229767E0,5.541337768E0
3.046517333E0,2.020498352E0,-6.447242889E0,-2.026485901E0,7.053793275E0
3.056458333E0,2.616858215E0,-7.829169159E0,-1.764081573E0,8.441316274E0
3.066400333E0,3.100352783E0,-8.574020233E0,-1.924996948E0,9.318348759E0
3.076341333E0,3.088227997E0,-8.298892365E0,-2.297422485E0,9.148055352E0
3.086282333E0,2.624342651E0,-7.143744507E0,-2.642754364E0,8.056327362E0
3.096224333E0,1.889520721E0,-5.711522827E0,-2.664309540E0,6.579538501E0
3.106165333E0,1.210981750E0,-4.292623444E0,-2.141596527E0,4.947679104E0
3.116106333E0,7.911048889E-1,-2.983146515E0,-1.327589264E0,3.359687981E0
3.126048333E0,5.031037903E-1,-1.832189941E0,-5.587879944E-1,1.980474041E0
3.135989333E0,1.703457642E-1,-8.641529846E-1,2.745291138E-1,9.225748178E-1
3.145930333E0,-4.107458496E-1,3.403921509E-1,4.832999725E0,4.862351830E0
3.155871333E0,-1.027313690E0,2.083068237E0,1.014784744E1,1.041025237E1
3.165813333E0,-6.957531738E-1,2.767295380E0,7.839347992E0,8.342504009E0
3.175754333E0,-6.689588928E-1,2.816692657E0,4.978048096E0,5.758665329E0
3.185695333E0,-7.336244202E-1,2.877466278E0,2.636467438E0,3.971017190E0
3.195637333E0,-5.640270996E-1,2.787203979E0,8.497828674E-1,2.967956117E0
3.205578333E0,-2.471360779E-1,2.569107513E0,-3.514691162E-1,2.604787937E0
3.215519333E0,1.776805115E-1,2.274071045E0,-9.226812744E-1,2.460550795E0
3.225461333E0,7.363188171E-1,2.063009949E0,-6.005511475E-1,2.271307361E0
3.235402333E0,2.052980804E0,1.795965271E0,7.107220459E-1,2.818749238E0
3.245343333E0,5.019811249E0,1.895059204E-1,2.513872375E0,5.617292211E0
3.255285333E0,8.418942719E0,-3.287164307E0,3.552113342E0,9.710898768E0
3.265226333E0,9.708061981E0,-7.781568146E0,2.135159912E0,1.262371491E1
3.275167333E0,1.050919601E1,-1.237791000E1,3.445235596E0,1.659896097E1
3.285109333E0,1.216220856E1,-1.835078934E1,6.167324982E0,2.286277944E1
3.295050333E0,1.465931580E1,-2.566652618E1,4.308640137E0,2.987022741E1
3.304991333E0,1.766731064E1,-3.203937378E1,-1.298549652E0,3.661067561E1
3.314932333E0,1.750849091E1,-3.564657257E1,-3.351530457E0,3.985546570E1
3.324874333E0,1.074151291E1,-3.421794342E1,-4.670288086E-1,3.586733705E1
3.334815333E0,2.675386505E0,-2.817515945E1,2.083068237E0,2.837845092E1
3.344756333E0,1.698817291E0,-2.163151703E1,1.880988464E0,2.177950015E1
3.354698333E0,4.743336182E0,-1.659149780E1,-2.553689575E-1,1.725810681E1
3.364639333E0,6.631210327E0,-1.393137955E1,-2.186203766E0,1.558318881E1
3.374580333E0,6.684948578E0,-1.260349091E1,-3.691024475E0,1.473635580E1
3.384522333E0,6.039191437E0,-1.192360474E1,-4.580175476E0,1.412877173E1
3.394463333E0,5.202730865E0,-1.193183762E1,-5.075196075E0,1.397121228E1
3.404404333E0,4.535268860E0,-1.268761597E1,-5.147196350E0,1.442351874E1
3.414346333E0,4.081113281E0,-1.347722397E1,-4.862488403E0,1.489747781E1
3.424287333E0,3.810326385E0,-1.368199814E1,-4.264481964E0,1.482907504E1
3.434228333E0,3.670217743E0,-1.346973953E1,-3.230282593E0,1.432965830E1
3.444170333E0,3.490142212E0,-1.294358368E1,-1.366208954E0,1.347530994E1
3.454111333E0,3.209176483E0,-1.220651642E1,3.555855560E0,1.311266432E1
3.464052333E0,4.022584991E0,-1.118294495E1,1.204530167E1,1.692125113E1
3.473993333E0,6.107898560E0,-9.636959839E0,1.331241669E1,1.753276526E1
3.483935333E0,6.366261292E0,-7.810907135E0,9.314230957E0,1.372204254E1
3.493876333E0,5.016967163E0,-6.236481171E0,5.895789642E0,9.941025722E0
3.503817333E0,3.884122925E0,-4.834795990E0,3.833977203E0,7.291162072E0
3.513759333E0,3.346291351E0,-3.328628082E0,2.726280670E0,5.450691425E0
3.523700333E0,3.084186401E0,-1.893562317E0,2.306104431E0,4.291375264E0
3.533641333E0,2.869383087E0,-7.399113464E-1,2.248324585E0,3.719649384E0
3.543583333E0,2.547252960E0,2.089654541E-1,2.151775360E0,3.341003054E0
3.553524333E0,2.127525787E0,1.047521667E0,1.861079865E0,3.014512545E0
3.563465333E0,1.529968414E0,1.820963287E0,1.513802032E0,2.819274239E0
3.573407333E0,1.098116455E0,2.349963226E0,1.039438477E0,2.794390678E0
3.583348333E0,7.358697510E-1,2.571951599E0,5.385800171E-1,2.728829008E0
3.593289333E0,4.626878357E-1,2.587668915E0,3.326083374E-1,2.649667668E0
3.603231333E0,8.517288208E-2,2.449655914E0,2.158511353E-1,2.460621920E0
3.613172333E0,-3.156935120E-1,1.974394226E0,-2.728825378E-1,2.018008878E0
3.623113292E0,-7.259902954E-1,1.016835480E0,-8.475375366E-1,1.509747058E0
3.633054292E0,-8.449928284E-1,-4.495152283E-1,-1.193168793E0,1.529617138E0
3.642996292E0,-9.024732971E-1,-2.211351471E0,-7.692503357E-1,2.509238821E0
3.652937292E0,-5.056484985E-1,-4.258045349E0,-1.874102783E-1,4.292056991E0
3.662878292E0,4.846920776E-1,-6.831942902E0,8.442443848E-2,6.849634859E0
3.672820292E0,1.915566559E0,-1.019484970E1,4.093986511E-1,1.038132761E1
3.682761292E0,4.247716827E0,-1.524744278E1,1.351090393E0,1.588562416E1
3.692702292E0,7.194488983E0,-2.167582489E1,1.642833710E0,2.289761907E1
3.702644292E0,9.051227875E0,-2.628069901E1,1.038989410E0,2.781509240E1
3.712585292E0,1.015832565E1,-2.900233932E1,2.806513824E0,3.085779944E1
3.722526292E0,1.092922256E1,-2.899320831E1,6.082900543E0,3.157618902E1
3.732468292E0,1.087683151E1,-2.327869171E1,7.576494598E0,2.678817317E1
3.742409292E0,9.565708008E0,-1.513203278E1,6.530769196E0,1.905602613E1
3.752350292E0,9.295370178E0,-1.034543655E1,4.753814392E0,1.469798338E1
3.762292292E0,1.047297134E1,-8.420140228E0,2.736459503E0,1.371386528E1
3.772233292E0,1.227746887E1,-8.242759094E0,9.610015869E-1,1.481900278E1
3.782174292E0,1.398272278E1,-9.025631104E0,1.428030396E-1,1.664328531E1
3.792115292E0,1.458641739E1,-1.007090744E1,-4.700225830E-2,1.772537611E1
3.802057292E0,1.403047348E1,-1.070229446E1,2.333647156E-1,1.764788236E1
3.811998292E0,1.314476532E1,-1.049662216E1,8.241860962E-1,1.684171057E1
3.821939292E0,1.208526855E1,-9.586215363E0,1.274300079E0,1.547814852E1
3.831881292E0,1.110525650E1,-8.150850220E0,1.279090118E0,1.383470826E1
3.841822292E0,1.016551071E1,-6.693031769E0,9.855505371E-1,1.221088007E1
3.851763292E0,9.107361145E0,-5.452711029E0,5.008584595E-1,1.062670898E1
3.861705292E0,7.850874023E0,-4.431983643E0,-8.577163696E-2,9.015878144E0
3.871646292E0,6.353986816E0,-3.721860352E0,-7.607180786E-1,7.402978113E0
3.881587292E0,4.677922211E0,-3.196902008E0,-1.264270935E0,5.805300996E0
3.891529292E0,2.964435425E0,-2.711910553E0,-1.348994751E0,4.238174498E0
3.901470292E0,1.369651794E0,-2.162852325E0,-8.373587036E-1,2.693519226E0
3.911411292E0,4.954696655E-2,-1.622476044E0,1.615141296E-1,1.631248058E0
3.921353292E0,-1.003962250E0,-1.165775757E0,1.080453186E0,1.879987341E0
3.931294292E0,-1.841470642E0,-9.210346985E-1,1.439855804E0,2.512469657E0
3.941235292E0,-2.201472015E0,-8.773255920E-1,1.213077393E0,2.662280224E0
3.951177292E0,-2.158062286E0,-8.686436462E-1,6.375242615E-1,2.412096972E0
3.961118292E0,-1.836231537E0,-7.183561707E-1,-2.065704346E-2,1.971854092E0
3.971059292E0,-1.506018219E0,-4.135899353E-1,-6.394702148E-1,1.687622489E0
3.981001292E0,-1.491348724E0,-9.834548950E-2,-1.005010071E0,1.801065822E0
3.990942292E0,-1.706900482E0,2.083666992E-1,-8.982820129E-1,1.940060956E0
4.000883292E0,-1.933080139E0,4.918771362E-1,-5.770500183E-1,2.076470242E0
4.010824292E0,-1.861528931E0,6.557862854E-1,-5.059478760E-2,1.974311385E0
4.020766292E0,-1.826501770E0,3.737727356E-1,6.950047302E-1,1.989684987E0
4.030707292E0,-2.346370697E0,-6.343807983E-1,1.487456818E0,2.849635456E0
4.040648292E0,-2.505040741E0,-2.455194397E0,2.281555481E0,4.184340337E0
4.050590292E0,4.953199768E-1,-5.982309723E0,5.593568115E0,8.204960436E0
4.060531292E0,6.228248291E0,-1.142259659E1,1.037612274E1,1.664123531E1
4.070472292E0,1.110780121E1,-1.820154968E1,8.448281708E0,2.293584798E1
4.080414292E0,1.461006821E1,-2.467723343E1,2.174827423E0,2.876021240E1
4.090355292E0,1.618958359E1,-2.810211136E1,-3.158132629E0,3.258535072E1
4.100296292E0,1.553185135E1,-2.964585114E1,-5.220693512E0,3.387285841E1
4.110238292E0,1.327424606E1,-3.042632812E1,-2.411634979E0,3.328337475E1
4.120179292E0,9.491312714E0,-2.722433670E1,3.767665100E0,2.907653394E1
4.130120292E0,5.879473572E0,-2.051364166E1,4.977299652E0,2.191235304E1
4.140062292E0,3.876488800E0,-1.587763229E1,1.319506073E0,1.639717869E1
4.150003292E0,2.916235657E0,-1.420456146E1,-1.092727661E0,1.454194108E1
4.159944292E0,2.462229767E0,-1.403421570E1,-1.884880371E0,1.437270189E1
4.169885292E0,2.411036224E0,-1.418719757E1,-2.450104980E0,1.459769451E1
4.179827292E0,2.502346344E0,-1.447774338E1,-2.872825928E0,1.497063524E1
4.189768292E0,2.353855133E0,-1.480286728E1,-3.107238464E0,1.530752901E1
4.199709292E0,1.907483368E0,-1.497261429E1,-3.117716675E0,1.541226228E1
4.209651292E0,1.374292145E0,-1.496662674E1,-2.525548096E0,1.524030800E1
4.219592292E0,1.129251709E0,-1.437520660E1,-1.186582489E0,1.446823252E1
4.229533292E0,2.023941193E0,-1.295331345E1,8.753796387E-1,1.313967110E1
4.239475292E0,4.178410950E0,-1.088461533E1,4.555476837E0,1.251744135E1
4.249416292E0,6.820416870E0,-8.299191742E0,7.916587372E0,1.334417571E1
4.259357292E0,8.191266174E0,-5.764362946E0,8.058342590E0,1.285541158E1
4.269299292E0,7.489076385E0,-3.672612762E0,6.447991333E0,1.054281470E1
4.279240292E0,5.904471588E0,-2.110461273E0,4.673880615E0,7.820613245E0
4.289181292E0,4.520150299E0,-9.467811584E-1,3.275937653E0,5.662148072E0
4.299123292E0,3.338657227E0,1.041833496E-1,2.414628754E0,4.121640240E0
4.309064292E0,2.338886261E0,1.105750580E0,1.701811066E0,3.096648864E0
4.319005292E0,1.564696198E0,2.082469482E0,1.016685791E0,2.796176556E0
4.328947292E0,9.304650879E-1,2.783312073E0,2.621049500E-1,2.946402956E0
4.338888292E0,3.680845642E-1,3.169209595E0,-5.318440247E-1,3.234537644E0
4.348829292E0,-7.544311523E-2,3.148402863E0,-1.078207855E0,3.328763198E0
4.358770292E0,-2.769241333E-1,2.806962891E0,-1.459764404E0,3.175947065E0
4.368712292E0,-1.947450256E-1,2.317480774E0,-1.547332306E0,2.793363569E0
4.378653292E0,-1.942959595E-1,1.769620056E0,-1.257385254E0,2.179523741E0
4.388594292E0,-3.092568970E-1,1.031804352E0,-6.598278809E-1,1.263183629E0
4.398536292E0,8.173004150E-2,-2.245330811E-1,1.401086426E-1,2.769933860E-1
4.408477292E0,1.123563538E0,-1.700314178E0,1.243613892E0,2.387475411E0
4.418418292E0,2.470312958E0,-3.667223969E0,2.264041901E0,4.967581250E0
4.428360292E0,3.828438721E0,-6.261329498E0,2.561623077E0,7.773229889E0
4.438301292E0,5.291645966E0,-9.601932678E0,2.178869019E0,1.117792907E1
4.448242292E0,7.122189331E0,-1.391611130E1,6.414161682E-1,1.564593076E1
4.458184292E0,8.785530396E0,-1.841650269E1,-1.906435547E0,2.049359929E1
4.468125292E0,1.133203491E1,-2.395199158E1,-3.364403687E0,2.671015028E1
4.478066292E0,1.440334808E1,-2.927746719E1,-4.140090637E0,3.289022456E1
4.488008292E0,1.503518417E1,-3.132296356E1,-3.066373444E0,3.487961375E1
4.497949292E0,1.134041748E1,-2.802741669E1,-1.588197327E-1,3.023518445E1
4.507890292E0,7.644453278E0,-2.122900406E1,2.065255280E0,2.265774831E1
4.517832292E0,7.939789124E0,-1.617775818E1,1.912273407E0,1.812227636E1
4.527773292E0,1.046997757E1,-1.396670609E1,7.620652771E-1,1.747197907E1
4.537714292E0,1.323727295E1,-1.306737625E1,1.657054138E-1,1.860132188E1
4.547656292E0,1.464913696E1,-1.252535339E1,1.236428833E-1,1.927425690E1
4.557597292E0,1.459839249E1,-1.210712311E1,4.141886902E-1,1.897016198E1
4.567538292E0,1.330792603E1,-1.163365768E1,7.952961731E-1,1.769393631E1
4.577479292E0,1.141900406E1,-1.100197128E1,8.146060181E-1,1.587767643E1
4.587421292E0,9.637857971E0,-1.013392639E1,6.900650024E-1,1.400217698E1
4.597362292E0,8.131540375E0,-9.184899902E0,5.828878784E-1,1.228104610E1
4.607303292E0,6.712940369E0,-8.081244965E0,5.412744141E-1,1.051965145E1
4.617245292E0,5.142256622E0,-6.871760101E0,7.243437195E-1,8.613278347E0
4.627182792E0,3.575165405E0,-5.654641113E0,1.132395172E0,6.785211317E0
4.637123792E0,2.375260620E0,-4.539160767E0,1.425785065E0,5.317772704E0
4.647065792E0,1.524429932E0,-3.638334045E0,1.460662537E0,4.206530196E0
4.657006792E0,9.641450500E-1,-2.981200562E0,1.467997284E0,3.460079261E0
4.666947792E0,7.981402588E-1,-2.619702301E0,1.535357208E0,3.139616183E0
4.676889792E0,6.283932495E-1,-2.407443695E0,1.619781647E0,2.968898079E0
4.686830792E0,1.661544800E-2,-2.171085205E0,1.677112427E0,2.743463711E0
4.696771792E0,-8.095166016E-1,-1.727108459E0,1.756148071E0,2.592735391E0
4.706713792E0,-1.532213745E0,-1.231938171E0,1.678908691E0,2.585359745E0
4.716654792E0,-1.912572784E0,-7.839198303E-1,1.337917786E0,2.462212208E0
4.726595792E0,-1.916315002E0,-3.858975220E-1,7.762857056E-1,2.103283049E0
4.736537792E0,-1.901944885E0,-3.308120728E-2,1.739382935E-1,1.910168381E0
4.746478792E0,-2.026934967E0,2.803669739E-1,-3.406915283E-1,2.074401533E0
4.756419792E0,-2.285896454E0,6.119274902E-1,-7.851173401E-1,2.493228246E0
4.766361792E0,-2.955304413E0,8.855584717E-1,-5.159770203E-1,3.127981820E0
4.776302792E0,-4.279600525E0,1.047671356E0,1.478774872E0,4.647512350E0
4.786243792E0,-6.074967041E0,9.499246216E-1,4.793631592E0,7.796568808E0
4.796184792E0,-5.244643707E0,5.278024292E-1,5.729186096E0,7.785142025E0
4.806126792E0,-2.147135010E0,-4.879852295E-2,3.503464508E0,4.109359269E0
4.816067792E0,-1.187031555E-1,-6.653663635E-1,3.881428528E-1,7.793957345E-1
4.826008792E0,1.075513458E0,-1.151555328E0,-1.990111542E0,2.538376021E0
4.835950792E0,1.529219971E0,-1.653910675E0,-2.769989777E0,3.570262960E0
4.845891792E0,1.972448273E0,-2.970123596E0,-2.606230316E0,4.416403834E0
4.855832792E0,3.231480103E0,-5.484145660E0,-2.358495483E0,6.788285367E0
4.865774792E0,6.043233032E0,-9.986632690E0,-2.818339233E0,1.200818612E1
4.875715792E0,1.211565536E1,-1.748648666E1,-4.268972626E0,2.169770605E1
4.885656792E0,2.536894501E1,-3.207604752E1,-5.161267090E0,4.122007852E1
4.895598792E0,3.436089615E1,-4.433121277E1,-3.427722015E0,5.619321034E1
4.905539792E0,2.892974030E1,-4.487727722E1,4.756508789E0,5.360526336E1
4.915480792E0,1.796863403E1,-3.973337402E1,1.333157684E1,4.559982195E1
4.925422792E0,1.284748352E1,-2.931174591E1,9.320517883E0,3.333329169E1
4.935363792E0,1.377615234E1,-2.143048508E1,7.824229431E-1,2.548843365E1
4.945304792E0,1.291184967E1,-1.660931076E1,-2.414928131E0,2.117585757E1
4.955246792E0,1.051144135E1,-1.408960052E1,-2.100581818E0,1.770366307E1
4.965187792E0,8.226143646E0,-1.277847702E1,-9.644444275E-1,1.522790423E1
4.975128792E0,6.876999207E0,-1.214948502E1,8.806187439E-1,1.398851649E1
4.985070792E0,6.060147858E0,-1.107561813E1,2.959046631E0,1.296729216E1
4.995011792E0,5.105133820E0,-9.772428131E0,4.033212891E0,1.174008301E1
5.004952792E0,4.144431610E0,-8.223598938E0,3.886218567E0,9.995328289E0
5.014893792E0,3.151995392E0,-6.576723633E0,3.089575195E0,7.920469909E0
5.024835792E0,2.178569641E0,-4.999752960E0,2.214045868E0,5.886059331E0
5.034776792E0,1.681303711E0,-3.632945251E0,1.580712891E0,4.303919912E0
5.044717792E0,8.084687805E-1,-2.100581818E0,1.341809692E0,2.620404357E0
5.054659792E0,3.832031250E-2,-6.491999817E-1,1.445094910E0,1.584685572E0
5.064600792E0,-3.050656128E-1,3.423381042E-1,1.816622314E0,1.873600021E0
5.074541792E0,-5.460644531E-1,9.081614685E-1,1.949695587E0,2.219066588E0
5.084483792E0,-1.133143616E0,1.417252808E0,1.856289825E0,2.595848973E0
5.094424792E0,-1.584904175E0,1.715582428E0,1.366508331E0,2.706009854E0
5.104365792E0,-1.966909790E0,1.833537140E0,8.461903381E-1,2.818976881E0
5.114307792E0,-2.243983612E0,1.878144379E0,4.583468628E-1,2.961920088E0
5.124248792E0,-2.554438019E0,1.853745117E0,2.489323425E-1,3.165989871E0
5.134189792E0,-2.939287720E0,1.850002899E0,4.920268250E-1,3.507707716E0
5.144131792E0,-3.183430023E0,1.722168732E0,1.263821869E0,3.833710679E0
5.154072792E0,-3.713328094E0,1.516047363E0,2.085762634E0,4.520797597E0
5.164013792E0,-3.987258453E0,9.610015869E-1,2.498753815E0,4.802658082E0
5.173955792E0,-3.400179291E0,1.598675537E-1,2.147584076E0,4.024784989E0
5.183896792E0,-2.239642639E0,-3.814068604E-1,1.176852722E0,2.558603657E0
5.193837792E0,-1.109492798E0,-5.739065552E-1,1.124162292E-1,1.254185158E0
5.203779792E0,-1.592687988E-1,-5.225633240E-1,-6.203100586E-1,8.265733764E-1
5.213720792E0,4.074526978E-1,-5.243595886E-1,-8.277786255E-1,1.061220115E0
5.223661792E0,5.869294739E-1,-7.337741089E-1,-7.252418518E-1,1.186965203E0
5.233603792E0,1.002165985E0,-1.076261902E0,-5.676196289E-1,1.576346531E0
5.243544792E0,2.335443420E0,-1.982477417E0,1.034349060E-1,3.065160919E0
5.253485792E0,9.599387970E0,-6.510261841E0,7.595505066E0,1.386446738E1
5.263427792E0,1.824825256E1,-1.467203934E1,1.648192566E1,2.863426851E1
5.273368792E0,1.721195755E1,-1.876542709E1,7.444169769E0,2.652938748E1
5.283309792E0,1.621473129E1,-2.325968124E1,2.119592285E-1,2.835445660E1
5.293250792E0,1.570593933E1,-2.855566818E1,-6.359674988E0,3.320464096E1
5.303192792E0,1.487187378E1,-3.161605408E1,-1.155821457E1,3.680135635E1
5.313133792E0,1.330178879E1,-3.188369751E1,-9.784253540E0,3.590597957E1
5.323074792E0,7.539371796E0,-2.911370773E1,-2.698139191E0,3.019486811E1
5.333016792E0,3.147953796E0,-2.377206573E1,6.600374451E0,2.487138246E1
5.342957792E0,4.102369080E0,-1.706541229E1,1.105885300E1,2.074502250E1
5.352898792E0,5.732628937E0,-1.233180588E1,6.785838776E0,1.519816037E1
5.362840792E0,6.062692566E0,-1.038854691E1,1.395847321E0,1.210894453E1
5.372781792E0,6.693031769E0,-1.036818924E1,-1.418450317E0,1.242207807E1
5.382722792E0,7.513176270E0,-1.184052750E1,-2.756517792E0,1.429140649E1
5.392664792E0,8.116870880E0,-1.414513504E1,-2.940784607E0,1.657156155E1
5.402605792E0,7.956554260E0,-1.622056915E1,-2.792293396E0,1.828142559E1
5.412546792E0,7.336244202E0,-1.719638992E1,-1.794767761E0,1.878183954E1
5.422488792E0,6.072422333E0,-1.699655548E1,1.686991882E-1,1.804953381E1
5.432429792E0,4.661157074E0,-1.620724686E1,2.199076996E0,1.700697432E1
5.442370792E0,3.662583618E0,-1.482651810E1,4.012256470E0,1.579045153E1
5.452312792E0,3.580105133E0,-1.276500504E1,5.233866119E0,1.425327544E1
5.462253792E0,4.614304504E0,-1.044003983E1,5.654491425E0,1.273811253E1
5.472194792E0,5.644312592E0,-8.364905090E0,5.663023682E0,1.157150548E1
5.482135792E0,5.831273804E0,-6.666686554E0,5.341342621E0,1.034303654E1
5.492077792E0,5.419031067E0,-5.325176239E0,4.470902710E0,8.815462025E0
5.502018792E0,4.763993225E0,-4.403692474E0,3.256927185E0,7.259181328E0
5.511959792E0,3.960015106E0,-3.482807465E0,2.131118317E0,5.687999012E0
5.521901792E0,3.114124146E0,-2.493514709E0,1.288969574E0,4.192472703E0
5.531842792E0,2.150428162E0,-1.475332031E0,7.279362488E-1,2.707551858E0
5.541783792E0,1.353635101E0,-3.387455750E-1,5.736071777E-1,1.508675494E0
5.551725792E0,6.550378418E-1,7.985893250E-1,8.250842285E-1,1.321961977E0
5.561666792E0,-2.288740540E-1,2.017654266E0,1.594184875E0,2.581615287E0
5.571607792E0,-1.233884125E0,2.917133789E0,2.447410583E0,4.002743827E0
5.581549792E0,-2.334395599E0,3.401376801E0,3.105891266E0,5.163848130E0
5.591490792E0,-3.626658325E0,3.401975555E0,3.529061279E0,6.097570155E0
5.601431792E0,-4.132755890E0,2.684517517E0,3.124452667E0,5.835110112E0
5.611373792E0,-3.293301544E0,1.450783081E0,1.538051605E0,3.913592895E0
5.621317792E0,-1.515598297E0,5.372328186E-1,-4.866380310E-1,1.680021986E0
5.631258792E0,-2.404000854E-1,2.933898926E-1,-1.723515930E0,1.764759755E0
5.641200792E0,1.184037781E-1,1.511856079E-1,-1.923500061E0,1.933062086E0
5.651141792E0,5.307962036E-1,-7.259902954E-2,-1.776505737E0,1.855528998E0
5.661082792E0,1.045276337E0,-3.574566650E-1,-1.583556976E0,1.930810862E0
5.671024792E0,1.565893707E0,-7.789801025E-1,-1.376238098E0,2.225503180E0
5.680965792E0,2.320923615E0,-1.428329773E0,-1.352287903E0,3.042284493E0
5.690906792E0,3.847449188E0,-3.127147064E0,-1.679956512E0,5.234899034E0
5.700848792E0,6.496789856E0,-6.680158539E0,-2.476001129E0,9.641751818E0
5.710789792E0,1.114806747E1,-1.216175949E1,-3.547023926E0,1.687510536E1
5.720730792E0,2.008403503E1,-2.182476517E1,-5.876180420E0,3.023604363E1
5.730672792E0,2.884112457E1,-3.209311203E1,-8.186176758E0,4.391801221E1
5.740613792E0,2.867392227E1,-3.768548264E1,-7.620652771E0,4.796315011E1
5.750554792E0,2.007535309E1,-4.000026901E1,1.902244263E0,4.479575712E1
5.760495792E0,5.475463715E0,-3.875440979E1,3.001139099E1,4.932107633E1
5.770437792E0,1.410067749E0,-2.897764069E1,2.325698685E1,3.718305243E1
5.780378792E0,3.224893799E0,-2.056663147E1,2.459235992E0,2.096268379E1
5.790319792E0,4.010310516E0,-1.613300125E1,-3.387156372E0,1.696552823E1
5.800261792E0,3.667373657E0,-1.298040710E1,-4.394711151E0,1.418640491E1
5.810202792E0,3.251089325E0,-1.125659180E1,-4.141138458E0,1.242696537E1
5.820143792E0,3.123105469E0,-1.010054581E1,-3.691772919E0,1.119839277E1
5.830085792E0,3.319497070E0,-9.348359985E0,-3.112627258E0,1.039708342E1
5.840026792E0,3.876788177E0,-9.063652039E0,-2.218087463E0,1.010441423E1
5.849967792E0,5.166805573E0,-8.949140167E0,-8.616082764E-1,1.036944349E1
5.859909792E0,7.185807037E0,-8.460256805E0,1.584006042E0,1.121253063E1
5.869850792E0,9.695338440E0,-6.349945221E0,9.570797424E0,1.503068711E1
5.879791792E0,1.050725006E1,-3.338058472E0,1.370639740E1,1.759006162E1
5.889733792E0,8.153993683E0,-1.436712341E0,9.690099335E0,1.274557886E1
5.899674792E0,5.652994537E0,-7.047344971E-1,4.580624542E0,7.309932910E0
5.909615792E0,3.537144470E0,-2.079176331E-1,6.053411865E-1,3.594587417E0
5.919557792E0,1.922452240E0,4.998106384E-1,-7.685018921E-1,2.129842353E0
5.929498792E0,6.180647278E-1,1.207389221E0,-7.722441101E-1,1.560818281E0
5.939439792E0,-7.954458618E-1,1.771116943E0,-1.071621552E0,2.217647875E0
5.949381792E0,-1.360969849E0,1.851200409E0,-1.826651459E0,2.935274678E0
5.959322792E0,-7.402107239E-1,1.497635651E0,-2.562072144E0,3.058600681E0
5.969263792E0,-3.839515686E-1,1.310524750E0,-2.665806427E0,2.995232517E0
5.979205792E0,-6.240522766E-1,1.295406189E0,-2.572700043E0,2.947253628E0
5.989146792E0,-1.044677582E0,1.263672180E0,-2.354154510E0,2.868843336E0
5.999087792E0,-1.407672729E0,1.288520508E0,-2.001637573E0,2.765570572E0
6.009029792E0,-1.552272034E0,1.324146423E0,-1.521136780E0,2.544949768E0
6.018970792E0,-1.731449432E0,1.138981476E0,-9.984237671E-1,2.300444730E0
6.028911792E0,-1.896406403E0,4.450245667E-1,-6.288423157E-1,2.046911519E0
6.038853792E0,-1.452429657E0,-9.476792908E-1,-6.819818115E-1,1.863530826E0
6.048794792E0,-8.756790161E-2,-2.818339233E0,-9.684860229E-1,2.981387152E0
6.058735792E0,2.502795410E0,-5.915099487E0,-1.929936676E0,6.706492554E0
6.068677792E0,7.733967133E0,-1.096754288E1,-3.701502686E0,1.392129184E1
6.078618792E0,1.477876740E1,-1.808119995E1,-5.783223724E0,2.405800146E1
6.088559792E0,2.544304092E1,-3.188354782E1,-8.678952026E0,4.170411444E1
6.098500792E0,2.718392075E1,-4.310556152E1,4.421804810E-1,5.096322699E1
6.108442792E0,1.345192657E1,-4.408991455E1,2.982098694E1,5.490142216E1
6.118383792E0,6.177204437E0,-3.327206039E1,2.449715790E1,4.177677109E1
6.128324792E0,7.021149445E0,-2.131402725E1,1.433269501E0,2.248640831E1
6.138266792E0,8.803642731E0,-1.538261169E1,-4.919370117E0,1.839372366E1
6.148207792E0,8.163873138E0,-1.150208130E1,-4.843627625E0,1.491333053E1
6.158148792E0,6.634653168E0,-9.056616669E0,-3.837719421E0,1.186461202E1
6.168090792E0,5.234015808E0,-7.751331024E0,-3.075055389E0,9.845507593E0
6.178031792E0,4.673132172E0,-6.971003723E0,-2.676134949E0,8.808788536E0
6.187972792E0,5.304369507E0,-6.755002899E0,-2.228415985E0,8.873118834E0
6.197914792E0,7.863148499E0,-7.720495148E0,-1.405277710E0,1.110900333E1
6.207855792E0,1.113205078E1,-8.844208374E0,1.520687714E0,1.429877853E1
6.217796792E0,1.467787720E1,-8.779093781E0,1.199006653E1,2.088717937E1
6.227738792E0,1.527797928E1,-7.416028290E0,1.640648254E1,2.361327584E1
6.237679792E0,1.240934464E1,-5.503455505E0,8.687334595E0,1.611675027E1
6.247620792E0,9.265731812E0,-3.767964478E0,1.517095184E0,1.011696200E1
6.257562792E0,6.200406189E0,-2.564766541E0,-2.609822845E0,7.199599961E0
6.267503792E0,3.763623505E0,-1.735491028E0,-4.211342468E0,5.908654363E0
6.277444792E0,2.109712830E0,-1.132544861E0,-4.446802826E0,5.050505070E0
6.287386792E0,9.331594849E-1,-6.846762085E-1,-4.140539703E0,4.299260072E0
6.297327792E0,-1.124162292E-1,-4.200265503E-1,-3.805835724E0,3.830593331E0
6.307268792E0,-1.049317932E0,-6.227050781E-2,-3.474724274E0,3.630241661E0
6.317210792E0,-1.636397095E0,3.344046021E-1,-2.906655579E0,3.352352688E0
6.327151792E0,-2.088906097E0,5.855822754E-1,-2.110760651E0,3.026837592E0
6.337092792E0,-2.370769958E0,7.044351196E-1,-1.431473236E0,2.857602957E0
6.347034792E0,-2.172282715E0,7.589218140E-1,-7.783813477E-1,2.429125776E0
6.356975792E0,-1.811981964E0,8.864566040E-1,4.640350342E-2,2.017730714E0
6.366916792E0,-1.643133087E0,8.496331787E-1,9.508227539E-1,2.079862205E0
6.376858792E0,-1.860481110E0,5.897735596E-1,1.843715973E0,2.684867110E0
6.386799792E0,-2.202669525E0,-4.849914551E-2,2.487078094E0,3.322598780E0
6.396740792E0,-2.391277313E0,-1.228046265E0,2.497556305E0,3.669344943E0
6.406681792E0,-1.940714264E0,-2.687810669E0,1.526375885E0,3.649728947E0
6.416623792E0,-1.169517975E0,-4.453239441E0,4.064048767E-1,4.622150878E0
6.426564792E0,-8.614585876E-1,-6.809040527E0,-3.249742126E-1,6.871008080E0
6.436505792E0,1.544787598E-1,-1.076456497E1,-1.070723419E0,1.081878789E1
6.446447792E0,5.274132385E0,-1.740535538E1,-2.597248993E0,1.837140633E1
6.456388792E0,2.174632828E1,-3.450534576E1,1.906734924E0,4.083083783E1
6.466329792E0,2.982188507E1,-4.108072220E1,9.727671204E0,5.168750480E1
6.476271792E0,2.940814545E1,-3.661460953E1,1.000294876E1,4.801591021E1
6.486212792E0,2.515204605E1,-2.962998413E1,3.524869995E0,3.902545437E1
6.496153792E0,1.830019455E1,-2.138423126E1,-1.738335114E0,2.819936659E1
6.506095792E0,1.342588074E1,-1.492276794E1,-3.345542908E0,2.035033007E1
6.516036792E0,1.096604599E1,-1.097397949E1,-3.516637115E0,1.590751794E1
6.525977792E0,1.070513855E1,-9.223968658E0,-3.308569794E0,1.451303632E1
6.535919792E0,1.106439148E1,-8.260871429E0,-3.359613647E0,1.421090284E1
6.545860792E0,1.098595459E1,-7.296576691E0,-3.332220612E0,1.360275427E1
6.555801792E0,9.846973114E0,-6.262826385E0,-2.897524567E0,1.202420569E1
6.565743792E0,7.754624176E0,-5.519322510E0,-2.623743896E0,9.873254231E0
6.575684792E0,6.035299530E0,-5.222190399E0,-2.417622528E0,8.339125354E0
6.585625792E0,5.128784637E0,-5.214705963E0,-1.973047028E0,7.575652098E0
6.595567792E0,4.513863373E0,-5.159321136E0,-1.329385529E0,6.982895032E0
6.605508792E0,3.685935059E0,-5.019362183E0,-1.380130005E-1,6.228897299E0
6.615449792E0,2.546354828E0,-4.691094818E0,2.039359131E0,5.713954775E0
6.625391917E0,2.214944000E0,-3.822451172E0,4.950355682E0,6.634992937E0
6.635332917E0,3.066523132E0,-2.320773926E0,6.974296875E0,7.964318718E0
6.645273917E0,3.622467041E0,-7.292834473E-1,7.081174622E0,7.987312178E0
6.655215917E0,3.120860138E0,4.929249573E-1,5.780679016E0,6.587791201E0
6.665156917E0,1.986519012E0,1.230590973E0,4.089046783E0,4.709661933E0
6.675097917E0,9.978250122E-1,1.496737518E0,2.338287506E0,2.950163795E0
6.685039917E0,4.212240601E-1,1.185834045E0,4.813989258E-1,1.347359276E0
6.694980917E0,1.558259583E-1,7.384144592E-1,-1.195414124E0,1.413701726E0
6.704921917E0,1.716929626E-1,6.444099426E-1,-2.167941742E0,2.268196209E0
6.714863917E0,1.073268127E-1,8.641529846E-1,-2.306254120E0,2.465174941E0
6.724804917E0,-3.385958862E-1,1.191671906E0,-2.203118591E0,2.527540431E0
6.734745917E0,-8.933422852E-1,1.436862030E0,-2.093995514E0,2.692108866E0
6.744686917E0,-1.264420624E0,1.549128571E0,-1.719773712E0,2.637457196E0
6.754628917E0,-1.538500671E0,1.562899933E0,-1.313069458E0,2.556128306E0
6.764569917E0,-1.704056396E0,1.479074249E0,-1.024918671E0,2.478291169E0
6.774510917E0,-1.693727875E0,1.194066925E0,-8.143066406E-1,2.226568041E0
6.784452917E0,-1.197958832E0,5.981561279E-1,-5.924679565E-1,1.464211185E0
6.794393917E0,-1.892065430E-1,-2.023791504E-1,-3.879931641E-1,4.767547921E-1
6.804334917E0,1.027313690E0,-1.232686615E0,-1.642085266E-1,1.613026394E0
6.814276917E0,3.138373718E0,-2.656076660E0,1.279539185E0,4.305967179E0
6.824217917E0,8.367300110E0,-4.976102142E0,7.226971436E0,1.212445544E1
6.834158917E0,1.351928650E1,-8.099506989E0,8.097710724E0,1.771852251E1
6.844100917E0,1.845721802E1,-1.276545410E1,5.261558533E0,2.305015648E1
6.854041917E0,2.299368439E1,-1.835572906E1,2.128573608E-1,2.942256990E1
6.863982917E0,2.664803513E1,-2.323258759E1,-4.959486694E0,3.569968362E1
6.873924917E0,2.927791626E1,-2.754077866E1,-6.736890564E0,4.075630705E1
6.883865917E0,2.811438583E1,-3.026705933E1,-5.596412201E0,4.168732902E1
6.893806917E0,2.196143097E1,-3.080099899E1,-3.281925201E0,3.797073903E1
6.903748917E0,1.501228180E1,-2.960079483E1,-1.041983185E0,3.320634560E1
6.913689917E0,1.151181107E1,-2.642619644E1,-1.995350647E-1,2.882543090E1
6.923630917E0,1.003947281E1,-2.272050247E1,-3.971241760E-1,2.484290552E1
6.933572917E0,9.220825195E0,-1.970517288E1,6.727011108E-1,2.176625789E1
6.943513917E0,9.832153931E0,-1.660437103E1,3.313060455E0,1.957939626E1
6.953454917E0,1.214259933E1,-1.335058731E1,6.956633606E0,1.934103542E1
6.963396917E0,1.367810623E1,-1.059257263E1,9.435179443E0,1.970573003E1
6.973337917E0,1.313264053E1,-8.337811432E0,8.519383850E0,1.773598737E1
6.983278917E0,1.104343506E1,-6.391558685E0,5.666765900E0,1.396143675E1
6.993220917E0,8.619076538E0,-4.924459534E0,3.012335815E0,1.037366614E1
7.003161917E0,6.376739502E0,-3.545826416E0,1.269809418E0,7.405950824E0
7.013102917E0,4.342918854E0,-2.255359955E0,5.209167480E-1,4.921274932E0
7.023044917E0,2.031126251E0,-1.254690857E0,2.647993469E-1,2.402049477E0
7.032985917E0,2.947370911E-1,-8.264314270E-1,-1.196012878E-1,8.855299681E-1
7.042926917E0,-1.233734436E0,-8.683442688E-1,-3.968247986E-1,1.559997548E0
7.052867917E0,-2.897075500E0,-7.985893250E-1,-7.872129822E-1,3.106524689E0
7.062809917E0,-4.382586365E0,-7.723937988E-1,-1.056952057E0,4.573926440E0
7.072750917E0,-4.893024902E0,-6.280938721E-1,-1.290616150E0,5.099204316E0
7.082691917E0,-4.716841278E0,-4.667294312E-1,-1.351539459E0,4.928801773E0
7.092633917E0,-4.267026672E0,-2.332150269E-1,-1.141825562E0,4.423310014E0
7.102574917E0,-4.003275146E0,1.444496155E-1,-6.029461670E-1,4.051002551E0
7.112515917E0,-3.795058136E0,4.114942932E-1,4.610412598E-2,3.817580307E0
7.122457917E0,-3.338956604E0,5.498066711E-1,6.306385803E-1,3.442182970E0
7.132398917E0,-2.831062775E0,5.069956970E-1,1.022972717E0,3.052611055E0
7.142339917E0,-2.401007080E0,4.465214539E-1,1.194965057E0,2.718852312E0
7.152281917E0,-2.095642090E0,4.125421143E-1,1.152752838E0,2.427085880E0
7.162222917E0,-1.908381500E0,3.140469360E-1,1.070723419E0,2.210654670E0
7.172163917E0,-1.703307953E0,2.221380615E-1,1.018332367E0,1.996898623E0
7.182105917E0,-1.418150940E0,1.386117554E-1,1.065035248E0,1.778950642E0
7.192046917E0,-1.068927155E0,1.535806274E-1,1.439556427E0,1.799587446E0
7.201987917E0,-6.072871399E-1,2.032772827E-1,1.962718506E0,2.064554009E0
7.211929917E0,-3.592529297E-1,3.577560425E-2,2.008972321E0,2.041154660E0
7.221870917E0,-4.903802490E-1,-4.960684204E-1,1.491049347E0,1.646142406E0
7.231811917E0,-7.584727478E-1,-1.514700165E0,5.804928589E-1,1.790689660E0
7.241753917E0,-7.949967957E-1,-3.219505005E0,-9.695338440E-1,3.455029415E0
7.251694917E0,-1.633103943E-1,-5.426216125E0,-2.471360779E0,5.964739376E0
7.261635917E0,5.463189240E0,-9.824669495E0,1.687590637E0,1.136743285E1
7.271577917E0,2.004361908E1,-1.980501526E1,1.461560669E1,3.174273545E1
7.281518917E0,2.750949371E1,-2.513093994E1,1.675091629E1,4.085253460E1
7.291459917E0,2.522928543E1,-2.341939911E1,5.863307190E0,3.491938529E1
7.301401917E0,2.323348572E1,-2.280253189E1,-8.844507751E0,3.373389448E1
7.311342917E0,2.523153076E1,-2.498409531E1,-1.308638672E1,3.784294756E1
7.321283917E0,2.557955704E1,-2.396097290E1,-1.109732300E1,3.676401146E1
7.331225917E0,2.457155319E1,-1.798075882E1,-5.867498474E0,3.100800626E1
7.341166917E0,2.782204376E1,-1.431937271E1,-1.183588715E0,3.131311923E1
7.351107917E0,3.143912201E1,-1.707918365E1,1.181493073E0,3.579822388E1
7.361048917E0,2.426035034E1,-2.010499146E1,7.207661591E0,3.232221629E1
7.370990917E0,1.574440933E1,-2.118439682E1,1.317754715E1,2.950106511E1
7.380931917E0,1.319027069E1,-2.037203613E1,9.438023529E0,2.603995747E1
7.390873917E0,1.228630051E1,-1.754561371E1,3.643423462E0,2.172731633E1
7.400814917E0,1.105690704E1,-1.395383286E1,4.317022705E-1,1.780873414E1
7.410755917E0,9.506730652E0,-1.008153534E1,-1.397643585E0,1.392726427E1
7.420696917E0,8.024662628E0,-6.609056396E0,-5.539979553E-1,1.041065562E1
7.430638917E0,6.516698456E0,-3.403921509E0,3.045566711E0,7.957984481E0
7.440579917E0,5.284011841E0,-5.604345703E-1,6.252048798E0,8.205058331E0
7.450520917E0,4.822820892E0,1.347348175E0,6.796766052E0,8.442214001E0
7.460462917E0,4.019890594E0,2.242786102E0,5.799090729E0,7.403989679E0
7.470403917E0,2.229314117E0,2.387984161E0,4.601431274E0,5.643179916E0
7.480344917E0,3.978726196E-1,1.578317871E0,4.008813629E0,4.326658831E0
7.490286917E0,-1.456022186E0,1.080902252E0,4.147425385E0,4.526531520E0
7.500227917E0,-3.149001617E0,8.560697937E-1,4.312532043E0,5.408049492E0
7.510168917E0,-4.004772034E0,5.912704468E-1,3.823349304E0,5.568285166E0
7.520110917E0,-4.951553192E0,5.460644531E-1,2.997516632E0,5.813877481E0
7.530051917E0,-5.650599518E0,3.097059631E-1,1.544188843E0,5.865979192E0
7.539992917E0,-4.906496887E0,-5.298980713E-2,-1.278641052E0,5.070645182E0
7.549934917E0,-3.299588470E0,-6.840774536E-2,-3.133883057E0,4.551174212E0
7.559875917E0,-2.539918213E0,-2.182461548E-1,-3.049907684E0,3.975016075E0
7.569816917E0,-1.720073090E0,-4.092489624E-1,-2.181413727E0,2.807971153E0
7.579758917E0,-8.213420105E-1,-5.936654663E-1,-1.438957672E0,1.760011524E0
7.589699917E0,-5.776487732E-1,-7.729925537E-1,-1.020727386E0,1.404663658E0
7.599640917E0,-7.800279236E-1,-9.252259827E-1,-9.587562561E-1,1.543923651E0
7.609582917E0,-8.958869934E-1,-9.217831421E-1,-1.097817078E0,1.690414151E0
7.619523917E0,-1.182989960E0,-7.009922791E-1,-1.623523865E0,2.127600799E0
7.629462167E0,-1.723964996E0,-4.983137512E-1,-2.293979645E0,2.912510002E0
7.639404167E0,-2.084565125E0,-7.455995178E-1,-2.688110046E0,3.482422436E0
7.649345167E0,-1.601369934E0,-1.477427673E0,-2.529889069E0,3.338789735E0
7.659286167E0,-3.861968994E-1,-2.400108948E0,-2.072590027E0,3.194573591E0
7.669228167E0,7.649093628E-1,-3.296594696E0,-1.687291260E0,3.781477848E0
7.679169167E0,2.244432678E0,-4.577630768E0,-1.610800323E0,5.346668044E0
7.689110167E0,4.440665588E0,-6.951394501E0,-2.071841583E0,8.504935268E0
7.699052167E0,7.810607758E0,-1.074735077E1,-2.787353668E0,1.357499475E1
7.708993167E0,1.312755112E1,-1.556089096E1,-3.225642242E0,2.061258581E1
7.718934167E0,2.531820053E1,-2.460613129E1,-8.018824768E-1,3.531452945E1
7.728876167E0,3.575255219E1,-3.178909424E1,1.187720123E1,4.929360414E1
7.738817167E0,3.270638672E1,-3.313464615E1,1.816816910E1,4.997694344E1
7.748758167E0,2.320429642E1,-2.974329849E1,1.390608215E-1,3.772429609E1
7.758699167E0,1.991773087E1,-2.566293365E1,-6.521039429E0,3.313345925E1
7.768641167E0,1.701496719E1,-2.368404877E1,-4.270020447E0,2.947331588E1
7.778582167E0,1.411549667E1,-2.292153442E1,-3.327430573E0,2.712408120E1
7.788523167E0,1.222133560E1,-2.198732712E1,-2.386786652E0,2.526856443E1
7.798465167E0,1.027927414E1,-2.012669632E1,-1.173709259E0,2.263017841E1
7.808406167E0,9.148974609E0,-1.761462021E1,1.164578247E-1,1.984923535E1
7.818347167E0,8.371192017E0,-1.479104187E1,2.550246735E0,1.718591091E1
7.828289167E0,8.845256195E0,-1.154638916E1,8.356073456E0,1.677443362E1
7.838230167E0,1.063164139E1,-8.730145569E0,1.325508591E1,1.910352173E1
7.848171167E0,1.147858017E1,-7.293133850E0,9.986033936E0,1.687212132E1
7.858113167E0,1.075812836E1,-6.257886658E0,4.641996918E0,1.328332061E1
7.868054167E0,9.314680023E0,-4.955145721E0,1.578317871E0,1.066807482E1
7.877995167E0,7.018455048E0,-4.065545654E0,1.908531189E-1,8.113186651E0
7.887937167E0,4.504133606E0,-3.975732422E0,-4.186793518E-1,6.022371645E0
7.897878167E0,2.233804779E0,-3.956123199E0,-8.107141113E-1,4.614981249E0
7.907819167E0,8.364605713E-1,-2.854713593E0,-1.537602539E0,3.348623232E0
7.917761167E0,-6.536906433E-1,-1.471440125E-1,-1.672771454E0,1.801978678E0
7.927702167E0,-1.838327179E0,-1.267713776E0,-2.338137817E0,3.233176996E0
7.937643167E0,-2.966231689E0,-4.064048767E-1,-2.571951599E0,3.946977374E0
7.947585167E0,-3.560645599E0,5.373825073E-1,-2.310894470E0,4.278692592E0
7.957526167E0,-3.621269531E0,1.294657745E0,-1.865420837E0,4.274286677E0
7.967467167E0,-3.284320221E0,1.978136444E0,-1.349144440E0,4.064477067E0
7.977409167E0,-2.677631836E0,2.397264862E0,-9.782157898E-1,3.724714378E0
7.987350167E0,-2.126927032E0,2.548300781E0,-5.872288513E-1,3.370829749E0
7.997291167E0,-1.729353790E0,2.670895844E0,-2.894979858E-1,3.195020849E0
8.007233167E0,-1.493294678E0,2.736309814E0,-2.019300842E-1,3.123795152E0
8.017174167E0,-1.524280243E0,2.941832428E0,1.413061523E-1,3.316289451E0
8.027115167E0,-1.619332581E0,2.898123322E0,1.067130890E0,3.487137096E0
8.037057167E0,-1.782193909E0,2.643652496E0,2.687960358E0,4.170161212E0
8.046998167E0,-2.158511353E0,2.337988129E0,3.889661407E0,5.025417954E0
8.056939167E0,-2.805915070E0,1.626218262E0,4.306843872E0,5.391349493E0
8.066881167E0,-3.590134277E0,5.436694336E-1,4.969366150E0,6.154611321E0
8.076822167E0,-4.383933563E0,-7.601193237E-1,6.780599670E0,8.110067001E0
8.086763167E0,-4.437073059E0,-2.087259521E0,6.569688263E0,8.197870060E0
8.096705167E0,-2.633174286E0,-1.969155121E0,5.855822754E-1,3.339773242E0
8.106646167E0,-9.470805359E-1,-1.525627441E0,-4.022584991E0,4.405189059E0
8.116587167E0,1.287322998E-1,-2.245480499E0,-4.276157684E0,4.831591789E0
8.126529167E0,1.370100861E0,-3.017724609E0,-4.015699310E0,5.206695606E0
8.136470167E0,3.276835785E0,-4.230502625E0,-3.701203308E0,6.506436132E0
8.146411167E0,6.536906433E0,-7.176975403E0,-2.215393066E0,9.957313297E0
8.156353167E0,1.805949509E1,-1.749741394E1,1.406520126E1,2.881205900E1
8.166294167E0,1.986608826E1,-2.509935562E1,1.835438187E1,3.689881365E1
8.176235167E0,1.815963684E1,-2.902524170E1,4.404889984E0,3.452014081E1
8.186176167E0,2.284683975E1,-3.372471909E1,-3.376229095E0,4.087460932E1
8.196118167E0,2.513498154E1,-3.309243393E1,-7.113956451E0,4.216022837E1
8.206059167E0,2.720861938E1,-3.110501678E1,-2.846780090E0,4.142384814E1
8.216000167E0,2.952190887E1,-2.725607071E1,5.636379089E0,4.057345516E1
8.225942167E0,2.753299484E1,-1.970951385E1,1.125359802E1,3.568156681E1
8.235883167E0,2.214315308E1,-1.339504486E1,1.150522476E1,2.832166400E1
8.245824167E0,1.676663361E1,-1.038465500E1,6.799310760E0,2.086124849E1
8.255766167E0,1.354578140E1,-1.004007156E1,2.965632935E0,1.711976079E1
8.265707167E0,1.178559174E1,-1.124551483E1,1.257235565E0,1.633837255E1
8.275648167E0,1.098954712E1,-1.316287766E1,1.467697906E0,1.721004449E1
8.285590167E0,1.107861191E1,-1.442175980E1,3.963907013E0,1.861277401E1
8.295531167E0,1.089299789E1,-1.449405945E1,6.413562927E0,1.923197733E1
8.305472167E0,1.018077896E1,-1.320494019E1,6.400090942E0,1.786000755E1
8.315414167E0,9.129964142E0,-1.075648178E1,4.290378113E0,1.474671115E1
8.325355167E0,7.702382813E0,-8.170160065E0,2.252066803E0,1.145207498E1
8.335296167E0,5.660179596E0,-5.970634003E0,1.104852448E0,8.301012130E0
8.345238167E0,3.405867462E0,-4.083508301E0,1.017883301E0,5.413968935E0
8.355179167E0,6.632707214E-1,-2.470163269E0,1.229692841E0,2.837918094E0
8.365120167E0,-1.728904724E0,-1.218466187E0,1.302441559E0,2.483973713E0
8.375062167E0,-3.093916168E0,-3.559597778E-1,1.185235291E0,3.332237584E0
8.385003167E0,-3.747906189E0,3.480262756E-1,9.406439209E-1,3.879785313E0
8.394944167E0,-4.051025848E0,8.858578491E-1,7.629634094E-1,4.216357162E0
8.404886167E0,-4.136348419E0,1.280736694E0,6.950047302E-1,4.385509811E0
8.414827167E0,-4.384232941E0,1.771566010E0,9.074130249E-1,4.814908411E0
8.424768167E0,-4.845274200E0,2.452500000E0,2.054178314E0,5.806124945E0
8.434710167E0,-5.349126434E0,2.933150482E0,3.457510071E0,7.012196607E0
8.444651167E0,-5.598507843E0,2.933749237E0,3.472928009E0,7.211893206E0
8.454592167E0,-5.384902039E0,2.421963501E0,2.582280121E0,6.444474206E0
8.464534167E0,-4.905898132E0,1.581611023E0,2.251767426E0,5.624925462E0
8.474475167E0,-3.989204407E0,4.454736328E-1,2.268532562E0,4.610687426E0
8.484416167E0,-2.755619659E0,-4.884342957E-1,1.797013092E0,3.325847835E0
8.494358167E0,-1.361568604E0,-9.604028320E-1,8.077203369E-1,1.851662713E0
8.504299167E0,-2.359094238E-1,-1.056053925E0,-1.353186035E-1,1.090511014E0
8.514240167E0,3.318598938E-1,-1.108444977E0,-5.764512634E-1,1.292701557E0
8.524182167E0,5.607339478E-1,-1.187480621E0,-4.965174866E-1,1.403945298E0
8.534123167E0,8.048762512E-1,-1.109792175E0,-5.117857361E-1,1.463348589E0
8.544064167E0,1.106648712E0,-9.752220154E-1,-7.200027466E-1,1.641381524E0
8.554005167E0,1.598376160E0,-9.725276184E-1,-4.896318054E-1,1.933999902E0
8.563947167E0,3.200344849E0,-8.466394043E-1,1.683099976E0,3.713735445E0
8.573888167E0,7.799530792E0,-6.403683472E-1,1.546389267E1,1.733132219E1
8.583829167E0,1.040037231E1,-5.083129578E0,3.427317856E1,3.617536066E1
8.593771167E0,9.649833069E0,-1.438014633E1,2.049642746E1,2.683302863E1
8.603712167E0,1.300780014E1,-1.888128616E1,1.168769531E0,2.295804552E1
8.613653167E0,1.099403778E1,-1.694341599E1,-7.786956940E0,2.164682218E1
8.623595167E0,1.167107986E1,-1.781475403E1,-8.725355530E0,2.301545992E1
8.633535458E0,1.568902451E1,-2.138962006E1,-8.718170471E0,2.792253270E1
8.643476458E0,1.800695435E1,-2.400992111E1,-9.068891144E0,3.135237636E1
8.653418458E0,1.605830658E1,-2.480387009E1,-7.828121338E0,3.056764082E1
8.663359458E0,1.126467499E1,-2.421709030E1,-5.194348297E0,2.720921938E1
8.673300458E0,9.402846680E0,-2.424702805E1,-1.946402435E0,2.607911765E1
8.683242458E0,1.299432816E1,-2.566802307E1,5.446124725E0,2.928071459E1
8.693183458E0,1.812999847E1,-2.505175461E1,1.650318146E1,3.505199355E1
8.703124458E0,1.894744858E1,-2.081840790E1,1.486723343E1,3.183467520E1
8.713066458E0,1.732123032E1,-1.597537903E1,4.971910858E0,2.408230995E1
8.723007458E0,1.657967239E1,-1.330882416E1,2.526745605E-1,2.126203616E1
8.732948458E0,1.618778732E1,-1.259361145E1,-9.256750488E-1,2.053047447E1
8.742890458E0,1.551254150E1,-1.213481552E1,2.122586060E-1,1.969613529E1
8.752831458E0,1.433044968E1,-1.151944519E1,3.549568634E0,1.872588697E1
8.762772458E0,1.199455719E1,-1.127440475E1,6.950196991E0,1.786859936E1
8.772714458E0,9.640552368E0,-1.061322968E1,7.633825378E0,1.624365058E1
8.782655458E0,7.930658112E0,-9.291178894E0,5.967041473E0,1.359510674E1
8.792596458E0,6.253695374E0,-7.949219513E0,3.847898254E0,1.082151180E1
8.802538458E0,4.468807068E0,-6.771468658E0,2.040706329E0,8.365853616E0
8.812479458E0,2.695744171E0,-5.582191772E0,6.990463257E-1,6.238314467E0
8.822420458E0,1.075214081E0,-4.406536560E0,-1.496887207E-1,4.538287837E0
8.832362458E0,-2.540217590E-1,-3.423381042E0,-7.277865601E-1,3.509093628E0
8.842303458E0,-1.440903625E0,-2.705174561E0,-1.276994476E0,3.320374610E0
8.852244458E0,-2.560575256E0,-1.939816132E0,-1.787882080E0,3.676405119E0
8.862186458E0,-3.284769287E0,-1.211131439E0,-2.224374390E0,4.147817505E0
8.872127458E0,-3.844904480E0,-6.087840271E-1,-2.220482483E0,4.481567907E0
8.882068458E0,-4.422553253E0,-8.187973022E-2,-1.845961304E0,4.793042322E0
8.892010458E0,-4.196672974E0,4.165837097E-1,-1.341959381E0,4.425659388E0
8.901951458E0,-3.399281158E0,8.550219727E-1,-7.932005310E-1,3.593792155E0
8.911892458E0,-2.915187836E0,1.026864624E0,-1.962419128E-1,3.096979490E0
8.921833458E0,-2.634222107E0,1.108594666E0,2.124082947E-1,2.865872559E0
8.931775458E0,-2.540516968E0,1.099164276E0,7.008425903E-1,2.855445483E0
8.941716458E0,-2.429298248E0,1.039438477E0,1.346450043E0,2.965611243E0
8.951657458E0,-2.370171204E0,1.057251434E0,2.545157318E0,3.635012779E0
8.961599458E0,-2.922821960E0,1.150657196E0,4.921465759E0,5.838469441E0
8.971540458E0,-2.695444794E0,1.348395996E0,5.711522827E0,6.457947615E0
8.981481458E0,-1.368903351E0,1.562600555E0,4.135899353E0,4.628312904E0
8.991423458E0,-6.915618896E-1,1.545386353E0,2.708018646E0,3.193719119E0
9.001364458E0,-4.754113770E-1,1.428928528E0,1.648072815E0,2.232486667E0
9.011305458E0,-3.246748352E-1,1.274599457E0,8.622070313E-1,1.572710555E0
9.021247458E0,1.586700439E-2,1.078357544E0,5.128335571E-1,1.194196387E0
9.031188458E0,8.050259399E-1,5.791456604E-1,8.753796387E-1,1.322787198E0
9.041129458E0,2.727478180E0,-4.544549561E-1,2.831511841E0,3.957666716E0
9.051071458E0,5.430706787E0,-2.607278137E0,5.811963959E0,8.370746714E0
9.061012458E0,6.512806549E0,-6.042035522E0,6.690936127E0,1.112166663E1
9.070953458E0,7.291337585E0,-9.870025177E0,7.230563965E0,1.424296514E1
9.080895458E0,9.139244843E0,-1.366912491E1,6.207740936E0,1.757574521E1
9.090836458E0,1.184786224E1,-1.806218948E1,5.177882538E0,2.221317168E1
9.100777458E0,1.292562103E1,-2.042053528E1,1.733545074E0,2.422963307E1
9.110719458E0,1.450393890E1,-2.223566071E1,-1.347198486E0,2.658202014E1
9.120660458E0,1.749187546E1,-2.465058884E1,-3.883224792E0,3.047452496E1
9.130601458E0,2.064671494E1,-2.748689072E1,-4.828958130E0,3.471505200E1
9.140543458E0,2.328228424E1,-2.954391312E1,-2.695444794E0,3.771170885E1
9.150484458E0,2.355681335E1,-3.038606186E1,3.306773529E0,3.858977795E1
9.160425458E0,1.901795197E1,-2.657573547E1,1.152468430E1,3.465213646E1
9.170367458E0,1.314790878E1,-2.026171555E1,1.361448853E1,2.772650212E1
9.180308458E0,1.013153137E1,-1.647668655E1,7.923473053E0,2.090240543E1
9.190249458E0,9.603429565E0,-1.619706802E1,3.193908234E0,1.909900316E1
9.200191458E0,1.011716125E1,-1.794109131E1,1.288969574E0,2.063737270E1
9.210132458E0,1.051683014E1,-1.870689880E1,1.168470154E0,2.149225678E1
9.220073458E0,1.074585388E1,-1.768736893E1,2.562970276E0,2.085390160E1
9.230014458E0,1.079599960E1,-1.545595917E1,3.862867126E0,1.924479212E1
9.239956458E0,1.049347870E1,-1.278656021E1,4.348307648E0,1.710312827E1
9.249897458E0,9.601633301E0,-1.036908737E1,3.942950592E0,1.467161185E1
9.259838458E0,8.315208435E0,-8.342900848E0,3.123105469E0,1.218607704E1
9.269780458E0,6.882986755E0,-6.783294067E0,2.316582642E0,9.937562086E0
9.279721458E0,5.326822815E0,-5.770649872E0,1.521286469E0,7.999359585E0
9.289662458E0,3.726949768E0,-5.142406311E0,7.566764832E-1,6.395862455E0
9.299604458E0,2.214195557E0,-4.259691925E0,2.257305908E-1,4.806099412E0
9.309545458E0,9.292675781E-1,-3.103346558E0,-8.951385498E-2,3.240726897E0
9.319486458E0,-2.176473999E-1,-1.941911774E0,-3.104544067E-1,1.978578698E0
9.329428458E0,-1.154100037E0,-1.023421783E0,-4.471202087E-1,1.606006078E0
9.339369458E0,-1.762734375E0,-3.353027344E-1,-5.610333252E-1,1.880004998E0
9.349310458E0,-2.076182556E0,2.128573608E-1,-5.935157776E-1,2.169816407E0
9.359252458E0,-2.174677734E0,7.282356262E-1,-4.942721558E-1,2.346029697E0
9.369193458E0,-2.133962402E0,1.173260193E0,-2.094145203E-1,2.444215509E0
9.379134458E0,-2.130220184E0,1.526525574E0,3.200344849E-1,2.640178106E0
9.389076458E0,-2.196382599E0,1.666783905E0,8.376580811E-1,2.881655109E0
9.399017458E0,-2.502795410E0,1.700164490E0,1.507066040E0,3.380205941E0
9.408958458E0,-2.781216431E0,1.608405304E0,2.044149170E0,3.807975615E0
9.418900458E0,-2.749781799E0,1.434317322E0,2.202070770E0,3.803640598E0
9.428841458E0,-2.362686768E0,1.415606232E0,2.219434662E0,3.537247515E0
9.438782458E0,-1.662143555E0,1.544937286E0,2.267185364E0,3.207753402E0
9.448724458E0,-7.203021240E-1,1.734592896E0,2.276466064E0,2.951261663E0
9.458665458E0,1.098715210E-1,1.817071381E0,2.187251587E0,2.845679121E0
9.468606458E0,7.210505676E-1,1.644779663E0,2.134261780E0,2.789316656E0
9.478548458E0,1.242566071E0,1.349892883E0,2.267634430E0,2.916907120E0
9.488489458E0,1.679657135E0,9.975256348E-1,2.528392181E0,3.195163925E0
9.498430458E0,2.177072754E0,5.697152710E-1,2.759361877E0,3.560659944E0
9.508372458E0,2.659070435E0,2.754272461E-2,2.998863831E0,4.008066673E0
9.518313458E0,3.027903442E0,-7.731422424E-1,3.506757660E0,4.697158446E0
9.528254458E0,3.380869446E0,-1.893562317E0,4.145479431E0,5.674579823E0
9.538196458E0,4.135450287E0,-3.214565277E0,4.635111237E0,6.994257299E0
9.548137458E0,5.826633453E0,-5.073998566E0,5.874084778E0,9.705667974E0
9.558078458E0,8.232580261E0,-7.929460602E0,6.320606232E0,1.306146188E1
9.568020458E0,1.073747131E1,-1.217792587E1,5.953120422E0,1.729262304E1
9.577961458E0,1.117171829E1,-1.638507706E1,5.544769592E0,2.059180686E1
9.587902458E0,8.080945587E0,-1.829345856E1,1.610351257E0,2.006353754E1
9.597844458E0,8.321495361E0,-1.960054047E1,-2.139351196E0,2.140105827E1
9.607785458E0,1.263911682E1,-2.054013657E1,-4.996310120E0,2.462940517E1
9.617726458E0,1.769215897E1,-2.322270813E1,-5.959257660E0,2.979629866E1
9.627667708E0,2.142060562E1,-2.663411407E1,-6.378086700E0,3.476921580E1
9.637609708E0,2.258683044E1,-2.752491165E1,-4.859943695E0,3.593612004E1
9.647550708E0,2.215857101E1,-2.698977448E1,-9.424401855E-1,3.493334208E1
9.657491708E0,2.029225204E1,-2.650163956E1,8.278534698E0,3.438962822E1
9.667433708E0,1.730416580E1,-2.423625046E1,1.522977951E1,3.344811167E1
9.677374708E0,1.438508606E1,-2.064581680E1,9.305998077E0,2.682875421E1
9.687315708E0,1.327230011E1,-1.801264252E1,1.782044220E0,2.244515365E1
9.697257708E0,1.285182449E1,-1.648521881E1,-9.168434143E-1,2.092301207E1
9.707198708E0,1.231848358E1,-1.542452454E1,-2.077679443E-1,1.974092608E1
9.717139708E0,1.161614410E1,-1.425755127E1,3.306623840E0,1.868545780E1
9.727081708E0,1.127455444E1,-1.244212646E1,8.234077148E0,1.870085868E1
9.737022708E0,1.114357681E1,-9.998158722E0,1.034678375E1,1.819885755E1
9.746963708E0,1.037821838E1,-7.641609192E0,8.392896881E0,1.537993257E1
9.756905708E0,9.223369904E0,-5.705535278E0,5.530698853E0,1.217424803E1
9.766846708E0,7.935148773E0,-4.256997528E0,3.287164307E0,9.586139118E0
9.776787708E0,6.356232147E0,-2.987487488E0,1.542392578E0,7.190670585E0
9.786729708E0,4.449946289E0,-1.924248505E0,3.311114502E-1,4.859463867E0
9.796670708E0,2.343526611E0,-1.101708984E0,-5.810916138E-1,2.653968185E0
9.806611708E0,4.662803650E-1,-4.064048767E-1,-1.230740662E0,1.377426905E0
9.816553708E0,-1.125958557E0,-3.293151855E-3,-1.533411255E0,1.902404687E0
9.826494708E0,-2.178120575E0,5.328918457E-2,-1.743723907E0,2.790631119E0
9.836435708E0,-2.555186462E0,-3.861968994E-2,-1.987417145E0,3.237328566E0
9.846377708E0,-2.650388489E0,-2.260299683E-2,-1.923500061E0,3.274892750E0
9.856318708E0,-2.639311523E0,1.404080200E-1,-1.409918060E0,2.995588200E0
9.866259708E0,-2.447709961E0,3.718267822E-1,-8.131091309E-1,2.605894408E0
9.876201708E0,-2.213447113E0,5.230123901E-1,-4.019142151E-1,2.309637443E0
9.886142708E0,-2.186054077E0,5.797444153E-1,4.805007935E-2,2.262132805E0
9.896083708E0,-2.325114899E0,5.593867493E-1,5.608836365E-1,2.456351620E0
9.906025708E0,-2.571801910E0,4.713697815E-1,9.916877747E-1,2.796390384E0
9.915966708E0,-2.666105804E0,3.703298950E-1,1.282083893E0,2.981443191E0
9.925907708E0,-2.600691833E0,2.805166626E-1,1.500479736E0,3.015580715E0
9.935849708E0,-2.538271637E0,1.612147522E-1,1.761536865E0,3.093836652E0
9.945790708E0,-2.441572723E0,2.501298523E-1,1.915117493E0,3.113120190E0
9.955731708E0,-2.215542755E0,4.827461243E-1,2.177671509E0,3.143871295E0
9.965673708E0,-1.592687988E0,8.261320496E-1,2.522853699E0,3.095793917E0
9.975614708E0,-7.298822021E-1,1.042132874E0,2.641856232E0,2.932264194E0
9.985555708E0,-2.230361938E-2,1.035995636E0,2.684966583E0,2.877990612E0
9.995496708E0,5.032534790E-1,8.186476135E-1,2.830164642E0,2.988859294E0
1.000543871E1,1.003662872E0,3.291654968E-1,3.110531616E0,3.284980368E0
1.001537971E1,1.617236938E0,-6.075865173E-1,3.737877045E0,4.117807850E0
1.002532071E1,2.800077209E0,-2.141895905E0,5.732179871E0,6.729490063E0
1.003526271E1,4.466861115E0,-4.529880066E0,6.900799713E0,9.385824328E0
1.004520371E1,5.215304718E0,-6.341113586E0,3.012036438E0,8.745369536E0
1.005514471E1,4.196373596E0,-5.888754272E0,-1.267564087E0,7.341232659E0
1.006508671E1,3.619622955E0,-5.640869751E0,-3.040327606E0,7.359665335E0
1.007502771E1,4.342469788E0,-7.092251587E0,-3.101250916E0,8.875518783E0
1.008496871E1,7.097490692E0,-1.078192886E1,-3.367247772E0,1.334026693E1
1.009491071E1,1.372091721E1,-1.832519257E1,-5.560935974E0,2.355844351E1
1.010485171E1,2.437635910E1,-3.136846893E1,-9.634714508E0,4.087805585E1
1.011479271E1,2.990406418E1,-4.040802109E1,-8.960067444E0,5.106215851E1
1.012473471E1,2.554872116E1,-4.325794464E1,3.038681030E-2,5.023930584E1
1.013467571E1,1.878803009E1,-4.197750732E1,1.314266968E1,4.783127598E1
1.014461671E1,1.687500824E1,-3.126503403E1,1.696586929E1,3.937142335E1
1.015455871E1,1.742406647E1,-2.002086639E1,9.645342407E0,2.823943720E1
1.016449971E1,1.816382813E1,-1.459375214E1,3.533851318E0,2.356672142E1
1.017444071E1,1.791265045E1,-1.281874329E1,1.537901917E0,2.208049746E1
1.018438271E1,1.677621368E1,-1.225172241E1,4.640350342E-2,2.077373825E1
1.019432371E1,1.645363449E1,-1.181029037E1,-1.294208679E0,2.029482749E1
1.020426471E1,1.594589035E1,-1.113923584E1,-1.721420288E0,1.952734703E1
1.021420671E1,1.552855820E1,-1.018347336E1,-7.979905701E-1,1.858698572E1
1.022414771E1,1.477592331E1,-8.998238068E0,1.352736969E0,1.735298520E1
1.023408871E1,1.272234375E1,-8.061935120E0,3.676654358E0,1.550389034E1
1.024403071E1,9.655072174E0,-7.783963165E0,4.535119171E0,1.320521894E1
1.025397171E1,7.049290924E0,-7.847431183E0,3.961212616E0,1.126791392E1
1.026391271E1,5.120551758E0,-7.546257477E0,2.998414764E0,9.599819962E0
1.027385471E1,3.423530731E0,-6.752158813E0,2.406844940E0,7.943872725E0
1.028379571E1,2.096839600E0,-5.658383331E0,2.085313568E0,6.384557221E0
1.029373671E1,1.016386414E0,-4.385729828E0,1.681004333E0,4.805563758E0
1.030367771E1,3.781137085E-1,-3.300037537E0,1.022972717E0,3.475584972E0
1.031361971E1,3.966751099E-2,-2.373314667E0,4.782554626E-1,2.421347622E0
1.032356071E1,-4.948709106E-1,-1.262774048E0,3.917353821E-1,1.411719563E0
1.033350171E1,-1.161135406E0,-1.166075134E-1,6.304888916E-1,1.326404534E0
1.034344371E1,-2.112407227E0,1.173559570E0,1.268312531E0,2.729124957E0
1.035338471E1,-3.105891266E0,2.346221008E0,2.202819214E0,4.472552522E0
1.036332571E1,-3.866759033E0,2.955005035E0,2.872077484E0,5.650903402E0
1.037326771E1,-4.323010254E0,2.841690674E0,2.579436035E0,5.780753740E0
1.038320871E1,-4.200564880E0,2.053878937E0,1.557211761E0,4.928293059E0
1.039314971E1,-3.735182648E0,9.922865295E-1,7.840695190E-1,3.943473973E0
1.040309171E1,-3.203338623E0,1.172062683E-1,4.228706360E-1,3.233254586E0
1.041303271E1,-2.712658997E0,-3.860472107E-1,3.829037476E-1,2.766616446E0
1.042297371E1,-2.282902679E0,-5.439688110E-1,4.710704041E-1,2.393627798E0
1.043291571E1,-1.946252747E0,-5.125341797E-1,6.068380737E-1,2.102104538E0
1.044285671E1,-1.531914368E0,-3.547622681E-1,8.973838806E-1,1.810501512E0
1.045279771E1,-8.604107666E-1,4.475692749E-2,1.314865723E0,1.571999281E0
1.046273971E1,-1.859133911E-1,4.093986511E-1,1.678160248E0,1.737352256E0
1.047268071E1,2.522254944E-1,5.230123901E-1,1.708247681E0,1.804236625E0
1.048262171E1,4.761598206E-1,3.743714905E-1,1.437161407E0,1.559588118E0
1.049256371E1,7.042854309E-1,5.718109131E-2,1.158291321E0,1.356807440E0
1.050250471E1,1.052012329E0,-4.275109863E-1,9.583071899E-1,1.485882988E0
1.051244571E1,1.314117279E0,-1.075513458E0,6.376739502E-1,1.813907795E0
1.052238771E1,1.712289276E0,-1.838925934E0,7.095245361E-1,2.610940103E0
1.053232871E1,2.615960083E0,-3.046015778E0,1.641935577E0,4.337904069E0
1.054226971E1,3.803440704E0,-5.786217499E0,3.310665436E0,7.675088258E0
1.055221171E1,6.652765503E0,-1.159084671E1,6.824159088E0,1.500587097E1
1.056215271E1,1.186836960E1,-1.817131256E1,9.339228973E0,2.362786480E1
1.057209371E1,1.160327087E1,-1.691737015E1,4.910987549E0,2.109386419E1
1.058203571E1,8.707243195E0,-1.369906265E1,-2.816243591E0,1.647457525E1
1.059197671E1,1.071007828E1,-1.503338791E1,-6.123017120E0,1.944736145E1
1.060191771E1,1.744577133E1,-1.990051666E1,-7.164700928E0,2.741748421E1
1.061185971E1,2.514007095E1,-2.601425308E1,-7.332951050E0,3.691255480E1
1.062180071E1,2.878154846E1,-2.770199341E1,-6.067632294E0,4.040537257E1
1.063174167E1,2.625210846E1,-2.424089081E1,-1.201102295E0,3.575243534E1
1.064168267E1,2.387834473E1,-2.179856964E1,1.212358887E1,3.453019537E1
1.065162467E1,2.109503265E1,-1.916464691E1,1.969933502E1,3.464603721E1
1.066156567E1,1.960263611E1,-1.698922073E1,7.008425903E0,2.687033675E1
1.067150667E1,1.837458984E1,-1.737856110E1,-1.667981415E0,2.534604702E1
1.068144867E1,1.617266876E1,-1.818388641E1,-2.753374329E0,2.449061065E1
1.069138967E1,1.449570602E1,-1.828732132E1,-1.667831726E0,2.339515499E1
1.070133067E1,1.265543289E1,-1.756312729E1,-2.255809021E-1,2.164888701E1
1.071127267E1,1.091545120E1,-1.577509552E1,1.548679504E0,1.924575594E1
1.072121367E1,1.004501129E1,-1.343785583E1,4.038451996E0,1.725651517E1
1.073115467E1,9.677375793E0,-1.108220444E1,5.939199371E0,1.586634635E1
1.074109667E1,9.229207764E0,-8.854836273E0,5.772745514E0,1.403249772E1
1.075103767E1,8.414601746E0,-7.027136993E0,4.125421143E0,1.171346560E1
1.076097867E1,7.079827423E0,-5.668861542E0,2.295925598E0,9.355812197E0
1.077092067E1,5.585185547E0,-4.769831085E0,9.397457886E-1,7.404640999E0
1.078086167E1,4.197870483E0,-4.096082153E0,3.010240173E-1,5.872871620E0
1.079080267E1,2.921175385E0,-3.527714081E0,-1.010398865E-1,4.581292538E0
1.080074467E1,1.739233246E0,-2.953657837E0,-4.598437500E-1,3.458393149E0
1.081068567E1,8.440946960E-1,-2.295626221E0,-7.277865601E-1,2.551875561E0
1.082062667E1,-5.837860107E-3,-1.410516815E0,-7.229965210E-1,1.585028623E0
1.083056867E1,-7.738906860E-1,-5.851332092E-1,-5.810916138E-1,1.130908984E0
1.084050967E1,-1.435664520E0,1.098715210E-1,-2.571652222E-1,1.462647708E0
1.085045067E1,-1.857786713E0,8.047265625E-1,1.294807434E-1,2.028724124E0
1.086039267E1,-2.340383148E0,1.601369934E0,5.996530151E-1,2.898510425E0
1.087033367E1,-3.080743561E0,2.610720978E0,1.598974915E0,4.343220659E0
1.088027467E1,-4.092489624E0,3.444337463E0,3.122806091E0,6.193855808E0
1.089021667E1,-4.970863037E0,3.604354706E0,4.124672699E0,7.396876169E0
1.090015767E1,-5.233866119E0,2.779869232E0,4.126468964E0,7.221410777E0
1.091009867E1,-4.672982483E0,1.170416107E0,3.729793854E0,6.092454459E0
1.092004067E1,-3.464695129E0,-4.947212219E-1,2.977158966E0,4.594816311E0
1.092998167E1,-2.180216217E0,-1.443298645E0,2.045795746E0,3.319899692E0
1.093992267E1,-1.455722809E0,-1.625469818E0,1.348695374E0,2.565201793E0
1.094986367E1,-1.279838562E0,-1.603615265E0,1.016685791E0,2.289807560E0
1.095980567E1,-1.258433075E0,-1.564247131E0,9.310638428E-1,2.213007630E0
1.096974667E1,-1.059197388E0,-1.371298370E0,8.939410400E-1,1.949740729E0
1.097968767E1,-5.529501343E-1,-9.816586304E-1,7.673043823E-1,1.363144722E0
1.098962967E1,1.005908203E-1,-5.661227417E-1,5.834866333E-1,8.191886981E-1
1.099957067E1,7.150630188E-1,-2.740800476E-1,5.037025452E-1,9.165976475E-1
1.100951167E1,1.270258484E0,-2.647993469E-1,5.760021973E-1,1.419666806E0
1.101945367E1,2.108215942E0,-5.511538696E-1,8.743318176E-1,2.347935513E0
1.102939467E1,3.675307159E0,-1.174906769E0,2.781066742E0,4.756324301E0
1.103933567E1,7.477999420E0,-3.000809784E0,1.008916946E1,1.291188116E1
1.104927767E1,1.270183640E1,-7.344028015E0,1.672023010E1,2.224494302E1
1.105921867E1,1.444121933E1,-1.113624207E1,1.080767532E1,2.119836194E1
1.106915967E1,1.075019485E1,-1.167497177E1,1.767225037E0,1.596855471E1
1.107910167E1,7.655081177E0,-1.130808472E1,-3.620521088E0,1.412732178E1
1.108904267E1,7.587870941E0,-1.121812180E1,-6.017037506E0,1.481981047E1
1.109898367E1,1.166060165E1,-1.361508728E1,-6.993007965E0,1.924168374E1
1.110892567E1,1.960293549E1,-1.895403488E1,-8.419242096E0,2.853794238E1
1.111886667E1,2.686598190E1,-2.594868942E1,-7.977660370E0,3.819369753E1
1.112880767E1,2.787757828E1,-2.831975876E1,-5.235512695E0,4.008214939E1
1.113874967E1,2.275852341E1,-2.530487823E1,1.481918335E-2,3.403362264E1
1.114869067E1,1.961820374E1,-2.478830246E1,1.150148254E1,3.363952968E1
1.115863167E1,1.729458572E1,-2.511133072E1,1.724818222E1,3.503114922E1
1.116857367E1,1.587314163E1,-2.364438126E1,6.005361786E0,2.910460033E1
1.117851467E1,1.590188187E1,-2.155622360E1,-1.251697083E0,2.681617737E1
1.118845567E1,1.453537354E1,-1.986758514E1,-2.125130768E0,2.470858563E1
1.119839767E1,1.334804260E1,-1.802312073E1,-8.479866028E-1,2.244375644E1
1.120833867E1,1.322065750E1,-1.553873703E1,1.821861420E0,2.048309821E1
1.121827967E1,1.377121262E1,-1.298265244E1,5.120701447E0,1.960655871E1
1.122822067E1,1.418076096E1,-1.048419800E1,7.517217865E0,1.917083601E1
1.123816267E1,1.413360901E1,-8.150550842E0,7.859406281E0,1.810968387E1
1.124810367E1,1.354742798E1,-6.152206421E0,6.572532349E0,1.626593465E1
1.125804467E1,1.234288284E1,-4.602030029E0,4.720583496E0,1.399318927E1
1.126798667E1,1.058883041E1,-3.508254547E0,3.022514648E0,1.155710925E1
1.127792767E1,8.498427429E0,-2.878514099E0,1.680405579E0,9.128684193E0
1.128786867E1,6.166127472E0,-2.614762573E0,4.962181091E-1,6.715976751E0
1.129781067E1,3.947590942E0,-2.678529968E0,-5.535488892E-1,4.802542390E0
1.130775167E1,2.211351471E0,-2.674787750E0,-1.380878448E0,3.735155971E0
1.131769267E1,8.643026733E-1,-2.358196106E0,-1.849853210E0,3.119305193E0
1.132763467E1,-3.827540588E-1,-1.691781921E0,-1.915267181E0,2.583964999E0
1.133757567E1,-1.543440399E0,-9.684860229E-1,-1.772763519E0,2.542216344E0
1.134751667E1,-2.426753540E0,-3.453318787E-1,-1.514849854E0,2.881519899E0
1.135745867E1,-2.944975891E0,1.686991882E-1,-1.168470154E0,3.172800800E0
1.136739967E1,-3.091072083E0,4.887336731E-1,-8.436456299E-1,3.241191937E0
1.137734067E1,-2.985242157E0,7.062313843E-1,-4.001179504E-1,3.093626978E0
1.138728267E1,-2.765499115E0,7.297325134E-1,1.663041687E-1,2.864987255E0
1.139722367E1,-2.805615692E0,4.947212219E-1,7.108717346E-1,2.936250521E0
1.140716467E1,-3.199596405E0,2.049238586E-1,1.064885559E0,3.378371234E0
1.141710667E1,-3.330424347E0,-2.978805542E-2,1.250200195E0,3.557473006E0
1.142704767E1,-3.171754303E0,-3.474275208E-1,1.253792725E0,3.428225115E0
1.143698867E1,-2.939886475E0,-4.501139832E-1,1.203497314E0,3.208417190E0
1.144693067E1,-3.097059631E0,-3.754193115E-1,1.190175018E0,3.339046959E0
1.145687167E1,-3.117117920E0,-3.421884155E-1,1.149160309E0,3.339773414E0
1.146681267E1,-3.014132080E0,-2.513273621E-1,1.080303497E0,3.211730575E0
1.147675467E1,-2.984942780E0,-9.086105347E-2,1.017434235E0,3.154886931E0
1.148669567E1,-2.948269043E0,1.007405090E-1,1.196911011E0,3.183556968E0
1.149663667E1,-2.662812653E0,2.468367004E-1,1.708097992E0,3.173184257E0
1.150657867E1,-2.071991272E0,3.879931641E-1,2.441722412E0,3.225785930E0
1.151651967E1,-1.273252258E0,2.914439392E-1,2.754721527E0,3.048704901E0
1.152646067E1,-7.632627869E-1,-1.203497314E-1,2.392325134E0,2.514015451E0
1.153640167E1,-5.749543762E-1,-9.377998352E-1,2.044298859E0,2.321464815E0
1.154634367E1,4.670288086E-2,-1.811981964E0,1.781744843E0,2.541667658E0
1.155628467E1,6.414161682E-1,-2.281854858E0,9.708810425E-1,2.561422709E0
1.156622567E1,7.339237976E-1,-2.425256653E0,1.239422607E-1,2.536902768E0
1.157616767E1,1.618434448E0,-3.367846527E0,5.433700562E-2,3.736933610E0
1.158610867E1,4.730013885E0,-6.591093750E0,9.280700684E-2,8.113209064E0
1.159604967E1,8.017327881E0,-1.071337143E1,6.212081909E-2,1.338124556E1
1.160599167E1,9.481582947E0,-1.389784927E1,-5.162763977E-1,1.683202813E1
1.161593267E1,1.737197479E1,-2.208028381E1,-3.416794739E0,2.830192445E1
1.162587367E1,3.377711014E1,-3.572366226E1,-8.337362366E0,4.986566781E1
1.163581621E1,4.103117523E1,-4.456218246E1,-9.223818970E0,6.127335704E1
1.164575721E1,3.844185974E1,-4.565266479E1,-3.011587372E0,5.975794543E1
1.165569821E1,3.440819778E1,-4.194637207E1,8.627608795E0,5.493503289E1
1.166564021E1,2.868185577E1,-2.893482971E1,1.474493774E1,4.332766334E1
1.167558121E1,2.320788895E1,-1.570489151E1,9.367669830E0,2.954662358E1
1.168552221E1,2.034000275E1,-1.013213013E1,5.258115692E0,2.332431249E1
1.169546421E1,1.782313660E1,-7.881859589E0,3.874842224E0,1.986963288E1
1.170540521E1,1.666499496E1,-6.996450806E0,3.138972473E0,1.834463216E1
1.171534621E1,1.552212158E1,-6.690337372E0,2.104174347E0,1.703303914E1
1.172528821E1,1.390443558E1,-6.478078766E0,1.211430817E0,1.538721540E1
1.173522921E1,1.227881607E1,-5.993536377E0,1.064885559E0,1.370495471E1
1.174517021E1,1.045830185E1,-5.697152710E0,1.191372528E0,1.196883432E1
1.175511221E1,8.217012634E0,-6.077811127E0,1.060544586E0,1.027539973E1
1.176505321E1,5.858816528E0,-6.612349548E0,5.092410278E-1,8.849193414E0
1.177499421E1,3.920497284E0,-6.659052429E0,-9.684860229E-2,7.728043598E0
1.178493521E1,2.018552399E0,-6.187532959E0,-5.905220032E-1,6.535199625E0
1.179487721E1,4.144880676E-1,-5.462291107E0,-1.060843964E0,5.579768312E0
1.180481821E1,-8.271798706E-1,-4.719984741E0,-1.551224213E0,5.036742901E0
1.181475921E1,-1.658700714E0,-4.152963867E0,-1.696721649E0,4.783018011E0
1.182470121E1,-2.010319519E0,-3.657494202E0,-1.609902191E0,4.473302300E0
1.183464221E1,-2.235151978E0,-2.976560211E0,-1.528471527E0,4.023933432E0
1.184458321E1,-3.035387878E0,-2.221380615E0,-1.095721436E0,3.917743850E0
1.185452521E1,-4.212539978E0,-1.847158813E0,-5.272036743E-1,4.629841516E0
1.186446621E1,-4.878205719E0,-1.843566284E0,-1.654060364E-1,5.217565221E0
1.187440721E1,-5.195096741E0,-2.042352905E0,2.363584900E-1,5.587137091E0
1.188434921E1,-5.801036682E0,-1.875150604E0,7.900570679E-1,6.147552891E0
1.189429021E1,-6.015839996E0,-1.741179199E0,1.314566345E0,6.399228121E0
1.190423121E1,-5.777685242E0,-1.554068298E0,1.717528381E0,6.224683026E0
1.191417321E1,-5.403014374E0,-9.413923645E-1,1.835034027E0,5.783263247E0
1.192411421E1,-4.965324554E0,-1.977388000E-1,1.969005432E0,5.345140873E0
1.193405521E1,-4.631518707E0,6.301895142E-1,2.085014191E0,5.118143075E0
1.194399721E1,-4.258644104E0,1.528321838E0,2.184257813E0,5.024221277E0
1.195393821E1,-3.525917816E0,2.728526001E0,2.086361389E0,4.922383003E0
1.196387921E1,-2.453847198E0,3.494932251E0,1.606309662E0,4.562471725E0
1.197382121E1,-1.335073700E0,3.161725159E0,1.152603149E0,3.620417349E0
1.198376221E1,-3.532653809E-1,2.123783569E0,8.722361755E-1,2.322939738E0
1.199370321E1,3.691323853E-1,1.163530426E0,7.122189331E-1,1.413264865E0
1.200364521E1,7.562274170E-1,3.855981445E-1,4.749623108E-1,9.727050077E-1
1.201358621E1,9.027726746E-1,-3.191363525E-1,3.594026184E-1,1.022749606E0
1.202352721E1,9.946815491E-1,-9.469308472E-1,4.264631653E-1,1.438033464E0
1.203346921E1,1.072819061E0,-1.852697296E0,5.927673340E-1,2.221441226E0
1.204341021E1,8.798703003E-1,-3.699107666E0,5.334906006E-1,3.839554856E0
1.205335121E1,1.938169556E0,-9.097781067E0,-1.920506287E-1,9.303924173E0
1.206329221E1,6.002218323E0,-1.955892700E1,-4.116439819E-2,2.045922640E1
1.207323421E1,1.308084824E1,-3.011332901E1,4.079466705E0,3.308418388E1
1.208317521E1,2.560425568E1,-3.835908188E1,3.063229980E0,4.622099576E1
1.209311621E1,3.920646973E1,-4.499777664E1,-3.878135376E0,5.980791841E1
1.210305821E1,4.260275711E1,-4.634647202E1,-5.441933441E0,6.318706372E1
1.211299921E1,3.539644272E1,-4.143129318E1,2.324815521E0,5.454232282E1
1.212294021E1,2.469265137E1,-3.019056839E1,1.778601379E1,4.286653401E1
1.213288221E1,1.615171234E1,-1.732302658E1,2.312286575E1,3.310033205E1
1.214282321E1,1.599274292E1,-1.263372803E1,1.375968658E1,2.459080895E1
1.215276421E1,1.763976791E1,-1.286948776E1,4.847669220E0,2.236705220E1
1.216270621E1,1.736568787E1,-1.359413086E1,-1.692979431E-1,2.205439119E1
1.217264721E1,1.606504257E1,-1.332154770E1,-3.050656128E0,2.109160328E1
1.218258821E1,1.370490051E1,-1.180235687E1,-5.476511536E0,1.889740999E1
1.219253021E1,1.032133667E1,-9.580826569E0,-6.844666443E0,1.565795923E1
1.220247121E1,7.607180786E0,-7.286098480E0,-7.253765717E0,1.278958747E1
1.221241221E1,5.633235626E0,-5.618117065E0,-7.371870117E0,1.084624599E1
1.222235421E1,4.184847565E0,-4.355343018E0,-6.672823792E0,9.000474393E0
1.223229521E1,2.869682465E0,-3.377576294E0,-6.287674713E0,7.692720739E0
1.224223621E1,1.416803741E0,-2.678230591E0,-5.679639130E0,6.437278352E0
1.225217821E1,5.852828979E-1,-2.130968628E0,-4.388723602E0,4.913703107E0
1.226211921E1,-1.824705505E-1,-1.521136780E0,-3.206332397E0,3.553550344E0
1.227206021E1,-1.024469604E0,-7.249424744E-1,-2.241887970E0,2.569268618E0
1.228200221E1,-1.743125153E0,3.891906738E-3,-1.549278259E0,2.332115685E0
1.229194321E1,-2.103874969E0,5.297483826E-1,-9.321116638E-1,2.361303748E0
1.230188421E1,-2.471959534E0,1.004860382E0,-4.390370178E-1,2.704271034E0
1.231182521E1,-2.781216431E0,1.592388611E0,1.064286804E-1,3.206585939E0
1.232176721E1,-2.873574371E0,2.326462097E0,9.195378113E-1,3.809908837E0
1.233170821E1,-2.810854797E0,3.284769287E0,1.982477417E0,4.756136107E0
1.234164921E1,-2.708318024E0,4.335584106E0,2.990630951E0,5.922512098E0
1.235159121E1,-2.585124207E0,5.464686127E0,3.699107666E0,7.087246232E0
1.236153221E1,-2.471360779E0,6.162684631E0,3.738475800E0,7.619875804E0
1.237147321E1,-2.006876678E0,5.928571472E0,3.150797882E0,7.007356206E0
1.238141521E1,-1.328188019E0,4.660857697E0,2.474204865E0,5.441449034E0
1.239135621E1,-1.085243225E0,2.694846039E0,1.994901581E0,3.524142498E0
1.240129721E1,-1.393003235E0,5.815406799E-1,1.974394226E0,2.485333003E0
1.241123921E1,-1.970652008E0,-1.182840271E0,2.382745056E0,3.310597294E0
1.242118021E1,-2.534529419E0,-2.443967743E0,2.812950439E0,4.506607136E0
1.243112121E1,-2.959645386E0,-3.805536346E0,3.311862946E0,5.848935276E0
1.244106321E1,-3.041076050E0,-5.041516113E0,3.191064148E0,6.696858865E0
1.245100421E1,-1.254541168E0,-4.493206329E0,1.673519897E-1,4.668059913E0
1.246094521E1,1.368753662E0,-2.366878052E0,-2.508782959E0,3.710739850E0
1.247088721E1,2.799927521E0,-2.003134460E0,-2.178719330E0,4.074182090E0
1.248082821E1,4.146078186E0,-3.047961731E0,-1.481618958E0,5.354925749E0
1.249076921E1,8.493038635E0,-5.494174805E0,-4.444258118E-1,1.012497784E1
1.250071121E1,1.536988815E1,-9.523196411E0,4.861889648E-1,1.808759551E1
1.251065221E1,2.052397018E1,-1.533590881E1,-1.299148407E0,2.565367884E1
1.252059321E1,2.923839844E1,-2.676628922E1,8.217910767E-1,3.964837351E1
1.253053521E1,3.184627533E1,-3.894017349E1,8.730145569E0,5.105622201E1
1.254047621E1,2.508633270E1,-4.309253860E1,1.003049149E1,5.086159387E1
1.255041721E1,1.876333145E1,-3.944926483E1,2.588417358E0,4.376079304E1
1.256035821E1,1.714684296E1,-3.354778702E1,-1.287322998E-1,3.767605087E1
1.257030021E1,1.623449020E1,-2.418610474E1,3.773502960E0,2.937287284E1
1.258024121E1,1.365625168E1,-1.624152557E1,6.617289276E0,2.222766025E1
1.259018221E1,1.049108368E1,-1.154938293E1,6.829098816E0,1.703196036E1
1.260012421E1,8.168962555E0,-9.211095428E0,7.200476532E0,1.426264669E1
1.261006521E1,7.402556305E0,-8.855734406E0,8.386011200E0,1.426699182E1
1.262000621E1,8.169261932E0,-1.016640884E1,8.871002655E0,1.577299583E1
1.262994904E1,9.068741455E0,-1.266980301E1,8.018226013E0,1.752306846E1
1.263989004E1,9.355245667E0,-1.476664261E1,6.704707489E0,1.872237853E1
1.264983104E1,8.948691101E0,-1.511556702E1,5.026846619E0,1.827097769E1
1.265977304E1,7.595804443E0,-1.342782669E1,3.604354706E0,1.584279482E1
1.266971404E1,5.783074036E0,-1.048734146E1,2.630180511E0,1.226157110E1
1.267965504E1,4.024530945E0,-7.307503967E0,1.541644135E0,8.483697908E0
1.268959704E1,2.684667206E0,-4.747377777E0,8.951385498E-2,5.454635322E0
1.269953804E1,1.457968140E0,-2.773133240E0,-1.012943573E0,3.292718291E0
1.270947904E1,2.019300842E-1,-1.424437866E0,-1.586999817E0,2.142047481E0
1.271942104E1,-1.343605957E0,-4.052073669E-1,-1.385518799E0,1.972088314E0
1.272936204E1,-2.752027130E0,2.185455322E-2,-1.131497040E0,2.975637158E0
1.273930304E1,-3.816763000E0,7.948471069E-2,-1.113534393E0,3.976676560E0
1.274924504E1,-4.320615234E0,1.044827271E-1,-1.256337433E0,4.500779531E0
1.275918604E1,-4.303101654E0,2.454895020E-2,-1.639390869E0,4.604876645E0
1.276912704E1,-4.084256744E0,1.842668152E-1,-1.934427338E0,4.522954404E0
1.277906804E1,-3.530857544E0,4.927752686E-1,-1.832639008E0,4.008534420E0
1.278901004E1,-3.073857880E0,7.264393616E-1,-1.475332031E0,3.486103988E0
1.279895104E1,-2.650538177E0,8.852590942E-1,-1.055455170E0,2.987142767E0
1.280889204E1,-2.262095947E0,9.864486694E-1,-8.235873413E-1,2.601625484E0
1.281883404E1,-1.836081848E0,8.936416626E-1,-7.177574158E-1,2.164478617E0
1.282877504E1,-1.515897675E0,8.000862122E-1,-6.095324707E-1,1.819234328E0
1.283871604E1,-1.250948639E0,7.843688965E-1,-4.414320374E-1,1.541093542E0
1.284865804E1,-1.211281128E0,6.897656250E-1,-3.585044861E-1,1.439272057E0
1.285859904E1,-1.299298096E0,5.245092773E-1,-5.941145325E-1,1.521925623E0
1.286854004E1,-1.224753113E0,2.589614868E-1,-1.007554779E0,1.606937420E0
1.287848204E1,-1.143771515E0,-4.490661621E-3,-1.420396271E0,1.823666365E0
1.288842304E1,-1.015937347E0,-2.924917603E-1,-1.732497253E0,2.029587854E0
1.289836404E1,-7.866142273E-1,-6.719526672E-1,-1.944905548E0,2.202938928E0
1.290830604E1,-3.541635132E-1,-1.174008636E0,-1.966610413E0,2.317603199E0
1.291824704E1,3.469784546E-1,-1.902843018E0,-1.687141571E0,2.566642219E0
1.292818804E1,1.164727936E0,-3.008743286E0,-1.375190277E0,3.507174878E0
1.293813004E1,2.823728027E0,-4.795727234E0,-1.404828644E0,5.739859161E0
1.294807104E1,6.971901855E0,-8.401129761E0,-2.758314056E0,1.126031497E1
1.295801204E1,1.972747650E1,-1.610935043E1,-1.424138489E0,2.550907037E1
1.296795404E1,4.163277420E1,-2.899500458E1,2.751727753E0,5.080915453E1
1.297789504E1,4.980592804E1,-3.267719742E1,3.519181824E-1,5.956973682E1
1.298783604E1,4.449063126E1,-2.853815460E1,2.932701416E0,5.293810797E1
1.299777704E1,3.073753098E1,-1.962643661E1,4.008514252E0,3.668870414E1
1.300771904E1,2.191742249E1,-1.597627716E1,1.876348114E0,2.718704696E1
1.301766004E1,1.665751053E1,-1.707963272E1,6.929090881E-1,2.386769017E1
1.302760104E1,1.084315155E1,-1.986953110E1,2.310146027E0,2.275321903E1
1.303754304E1,6.328689423E0,-2.292737228E1,6.444997559E0,2.464253849E1
1.304748404E1,4.090693359E0,-2.404195450E1,1.086231171E1,2.669717520E1
1.305742504E1,6.516399078E0,-2.129127457E1,1.209889023E1,2.534097422E1
1.306736704E1,9.743388519E0,-1.680869614E1,9.722282410E0,2.172530002E1
1.307730804E1,1.133682495E1,-1.309656555E1,7.195836182E0,1.875696371E1
1.308724904E1,1.182331329E1,-1.002839584E1,5.471422119E0,1.644067883E1
1.309719104E1,1.067190765E1,-7.125332794E0,3.241209869E0,1.323500744E1
1.310713204E1,8.776698761E0,-4.687651978E0,1.311871948E0,1.003621095E1
1.311707304E1,7.467072144E0,-2.998414764E0,-3.781137085E-1,8.055471896E0
1.312701504E1,6.284680939E0,-2.135459290E0,-1.739083557E0,6.861618796E0
1.313695604E1,4.618346100E0,-1.231788483E0,-2.337688751E0,5.320828156E0
1.314689704E1,2.197131042E0,-3.260220337E-1,-2.329156494E0,3.218484917E0
1.315683904E1,-6.870712280E-2,4.293072510E-1,-2.437082062E0,2.475559403E0
1.316678004E1,-1.589394836E0,7.701484680E-1,-2.846181335E0,3.349634727E0
1.317672104E1,-2.714305573E0,9.331594849E-1,-3.416645050E0,4.462253328E0
1.318666304E1,-3.391347656E0,9.262738037E-1,-3.604953461E0,5.035366078E0
1.319660404E1,-3.668870544E0,9.746232605E-1,-3.072660370E0,4.883824661E0
1.320654504E1,-3.527414703E0,1.181044006E0,-1.982028351E0,4.214968068E0
1.321648704E1,-3.119812317E0,1.363664246E0,-9.128018188E-1,3.525055493E0
1.322642804E1,-2.634671173E0,1.307081909E0,6.631210327E-2,2.941828106E0
1.323636904E1,-2.333048401E0,1.235381012E0,8.039781189E-1,2.759648873E0
1.324631004E1,-2.064656525E0,1.128802643E0,1.077459412E0,2.588034149E0
1.325625204E1,-1.701811066E0,1.062640228E0,1.266067200E0,2.372402013E0
1.326619304E1,-1.774260406E0,9.683363342E-1,1.659299469E0,2.615138615E0
1.327613404E1,-1.874551849E0,9.349557495E-1,2.071691895E0,2.946182987E0
1.328607604E1,-1.635648651E0,8.719367981E-1,2.255958710E0,2.919755125E0
1.329601704E1,-1.210083618E0,8.333171082E-1,2.153421936E0,2.606903489E0
1.330595804E1,-7.482939148E-1,7.955955505E-1,1.824855194E0,2.126737535E0
1.331590004E1,-5.263055420E-1,6.170169067E-1,1.356179810E0,1.580168049E0
1.332584104E1,-4.903802490E-1,3.080593872E-1,6.798861694E-1,8.930949435E-1
1.333578204E1,-5.454656982E-1,-5.927673340E-2,-2.110610962E-2,5.490828962E-1
1.334572404E1,-4.652325439E-1,-6.813830566E-1,-4.194277954E-1,9.255505742E-1
1.335566504E1,3.409909058E-1,-2.112706604E0,-4.626878357E-1,2.189494011E0
1.336560604E1,1.908680878E0,-4.381239166E0,-7.671546936E-1,4.840128681E0
1.337554804E1,3.415297852E0,-6.196963348E0,-1.249751129E0,7.185296935E0
1.338548904E1,6.408772888E0,-9.102571106E0,-1.191821594E0,1.119596398E1
1.339543004E1,1.271560776E1,-1.678115341E1,4.460723877E-1,2.105926806E1
1.340537204E1,2.068817871E1,-2.750649994E1,3.442690887E0,3.458988866E1
1.341531304E1,2.857662460E1,-3.243305511E1,-1.386416931E0,4.324868425E1
1.342525404E1,3.313105362E1,-3.271581711E1,-5.398224335E0,4.687357709E1
1.343519604E1,3.231659729E1,-3.067555984E1,-5.177583160E0,4.485710423E1
1.344513704E1,2.979733612E1,-2.420122330E1,-3.067271576E0,3.850959106E1
1.345507804E1,2.820315125E1,-1.733081039E1,-3.221301270E-1,3.310405560E1
1.346501904E1,2.571771973E1,-1.327858704E1,3.524420929E0,2.915722080E1
1.347496104E1,2.146820663E1,-1.209589645E1,7.349865875E0,2.571410382E1
1.348490204E1,1.737122635E1,-1.412642395E1,7.404951324E0,2.358280438E1
1.349484304E1,1.509131744E1,-1.643671967E1,5.339995422E0,2.294404425E1
1.350478504E1,1.390443558E1,-1.680225952E1,4.030668182E0,2.217871817E1
1.351472604E1,1.223390945E1,-1.578856750E1,4.201013947E0,2.041068158E1
1.352466704E1,1.094164673E1,-1.336001770E1,6.248007202E0,1.836429416E1
1.353460904E1,1.065169968E1,-1.047521667E1,8.347990265E0,1.711367324E1
1.354455004E1,1.061472656E1,-7.979756012E0,8.845256195E0,1.595579779E1
1.355449104E1,9.739496613E0,-5.975723419E0,7.635471954E0,1.374290714E1
1.356443304E1,7.963439941E0,-4.614005127E0,5.473966827E0,1.070839539E1
1.357437404E1,5.772296448E0,-3.651057587E0,3.202440491E0,7.543557044E0
1.358431504E1,3.387306061E0,-2.766996002E0,1.411864014E0,4.596027548E0
1.359425704E1,1.136885834E0,-1.824406128E0,2.679428101E-1,2.166278022E0
1.360419804E1,-1.096619568E0,-1.024918671E0,-5.845344543E-1,1.610811375E0
1.361413904E1,-3.195105743E0,-2.975811768E-1,-1.234782257E0,3.438305177E0
1.362408104E1,-4.198768616E0,9.684860229E-2,-2.271526337E0,4.774816168E0
1.363402467E1,-4.450994110E0,3.362008667E-1,-2.691702576E0,5.212450705E0
1.364396567E1,-4.365671539E0,3.505709839E-1,-2.710563354E0,5.150644785E0
1.365390767E1,-4.144730988E0,3.649411011E-1,-2.428250427E0,4.817507354E0
1.366384867E1,-4.195176086E0,3.658392334E-1,-2.040406952E0,4.679380437E0
1.367378967E1,-4.481530609E0,2.406994629E-1,-1.457219696E0,4.718637735E0
1.368373067E1,-4.292623444E0,5.673202515E-2,-9.053173828E-1,4.387417705E0
1.369367267E1,-3.899091797E0,-2.451901245E-1,-4.755610657E-1,3.935631254E0
1.370361367E1,-3.291205902E0,-6.050418091E-1,-3.061134338E-1,3.360329941E0
1.371355467E1,-2.690654755E0,-8.782237244E-1,-6.361770630E-2,2.831068196E0
1.372349667E1,-2.227517853E0,-9.723779297E-1,3.852987671E-1,2.460855494E0
1.373343767E1,-1.973346405E0,-8.164022827E-1,1.115929413E0,2.409545014E0
1.374337867E1,-1.658551025E0,-4.082011414E-1,1.799258423E0,2.480876972E0
1.375332067E1,-8.774752808E-1,1.193019104E-1,2.720293121E0,2.860802419E0
1.376326167E1,1.872605896E-1,8.062234497E-1,4.389022980E0,4.466383940E0
1.377320267E1,1.065933380E0,1.442699890E0,4.983586578E0,5.296577398E0
1.378314467E1,1.242865448E0,1.784439240E0,4.368515625E0,4.879842896E0
1.379308567E1,1.282233582E0,1.635648651E0,3.705993347E0,4.248982956E0
1.380302667E1,1.763482819E0,4.863386536E-1,3.726051636E0,4.150886379E0
1.381296867E1,2.350412292E0,-1.357826385E0,4.341721344E0,5.120417431E0
1.382290967E1,3.221600647E0,-3.488495636E0,5.376369781E0,7.173120978E0
1.383285067E1,4.430935822E0,-5.994584198E0,4.973407745E0,8.961195041E0
1.384279267E1,4.880451050E0,-7.403155060E0,1.122815094E0,8.937909209E0
1.385273367E1,7.285948792E0,-9.694440308E0,-1.472937012E0,1.221625008E1
1.386267467E1,1.307501038E1,-1.639765091E1,-2.762505341E0,2.115349350E1
1.387261567E1,1.964185455E1,-2.501897278E1,-4.722679138E0,3.215672787E1
1.388255767E1,2.633937698E1,-3.052557175E1,-6.957980804E0,4.091438387E1
1.389249867E1,2.863904480E1,-3.116414383E1,-7.097490692E0,4.291588426E1
1.390243967E1,2.701926315E1,-2.831047806E1,-4.252057800E0,3.936500660E1
1.391238167E1,2.421753937E1,-2.203926910E1,2.570155334E-1,3.274575778E1
1.392232267E1,2.342344070E1,-1.713920883E1,5.290598145E0,2.950255044E1
1.393226367E1,2.193553482E1,-1.551478683E1,7.549999695E0,2.790840006E1
1.394220567E1,1.745654892E1,-1.554322769E1,5.229824524E0,2.395149456E1
1.395214667E1,1.312949707E1,-1.717932541E1,2.894979858E0,2.181499079E1
1.396208767E1,1.026280838E1,-1.972103989E1,2.748284912E0,2.240084195E1
1.397202967E1,9.192384338E0,-2.175126801E1,4.366869049E0,2.401431104E1
1.398197067E1,8.776698761E0,-2.193942673E1,7.543862457E0,2.480481298E1
1.399191167E1,9.045689392E0,-1.922452240E1,1.101843704E1,2.393350607E1
1.400185367E1,1.007449997E1,-1.517394562E1,1.202584213E1,2.182578874E1
1.401179467E1,9.851164398E0,-1.171508835E1,9.958790588E0,1.826105816E1
1.402173567E1,8.895102539E0,-8.864566040E0,7.015461273E0,1.438471679E1
1.403167767E1,7.988288269E0,-6.476731567E0,4.589755554E0,1.126173421E1
1.404161867E1,6.798562317E0,-4.665498047E0,2.613415375E0,8.649697193E0
1.405155967E1,5.256469116E0,-3.200045471E0,9.339079285E-1,6.224382910E0
1.406150067E1,3.549868011E0,-2.054178314E0,-7.229965210E-1,4.164605073E0
1.407144267E1,1.706301727E0,-9.987231445E-1,-2.639311523E0,3.297708117E0
1.408138367E1,-5.086422729E-1,-2.002835083E-1,-4.637955322E0,4.670059959E0
1.409132467E1,-2.550845490E0,-2.245330811E-3,-6.172264709E0,6.678597862E0
1.410126667E1,-3.720513153E0,5.418731689E-2,-6.416407013E0,7.417238930E0
1.411120767E1,-3.963607635E0,3.737727356E-1,-4.964426422E0,6.363601280E0
1.412114867E1,-3.759432220E0,8.674461365E-1,-3.196602631E0,5.010395373E0
1.413109067E1,-3.303480377E0,1.265019379E0,-1.656904449E0,3.906224390E0
1.414103167E1,-2.710114288E0,1.426683197E0,-4.584965515E-1,3.096831201E0
1.415097267E1,-2.545307007E0,1.642983398E0,7.044351196E-1,3.110339378E0
1.416091467E1,-2.497256927E0,1.677561493E0,1.706301727E0,3.458608146E0
1.417085567E1,-2.345771942E0,1.720821533E0,2.619103546E0,3.914533962E0
1.418079667E1,-1.716330872E0,1.889670410E0,3.323987732E0,4.191126383E0
1.419073867E1,-6.792874146E-1,2.091151428E0,3.492088165E0,4.126623976E0
1.420067967E1,-4.864883423E-2,2.022893372E0,2.842738495E0,3.489359032E0
1.421062067E1,9.265731812E-2,1.842368774E0,2.083217926E0,2.782571653E0
1.422056267E1,-2.020797729E-2,1.626517639E0,1.459764404E0,2.185607492E0
1.423050367E1,-1.549278259E-1,1.422791290E0,1.071022797E0,1.787575878E0
1.424044467E1,-1.766326904E-1,1.270258484E0,1.047222290E0,1.655726502E0
1.425038667E1,9.954299927E-2,1.083896027E0,1.582658844E0,1.920819726E0
1.426032767E1,7.601193237E-1,5.140310669E-1,3.224594421E0,3.352613683E0
1.427026867E1,1.953288116E0,-8.571176147E-1,6.790030060E0,7.117197010E0
1.428020967E1,3.604205017E0,-3.084485779E0,7.549101563E0,8.915900444E0
1.429015167E1,4.862488403E0,-4.632716217E0,2.725382538E0,7.248004070E0
1.430009267E1,5.339995422E0,-4.582720184E0,-1.739382935E-1,7.038972221E0
1.431003367E1,5.619314575E0,-5.321583710E0,-1.076710968E0,7.813786277E0
1.431997567E1,7.773035889E0,-8.062982941E0,-1.438358917E0,1.129161889E1
1.432991667E1,9.951904907E0,-1.050844757E1,-3.765868835E0,1.495492059E1
1.433985767E1,1.461740295E1,-1.488115448E1,-5.667664032E0,2.161572676E1
1.434979967E1,2.251752457E1,-2.273651917E1,-7.445067902E0,3.285448603E1
1.435974067E1,3.095398087E1,-3.281940170E1,-8.109835510E0,4.583701006E1
1.436968167E1,3.190121109E1,-4.032434509E1,-2.061662750E0,5.145862930E1
1.437962367E1,2.163076859E1,-4.127995789E1,1.623269394E1,4.935002964E1
1.438956467E1,1.147274231E1,-3.157174622E1,1.943543381E1,3.880895596E1
1.439950567E1,1.056862244E1,-2.091959747E1,5.743556213E0,2.413117852E1
1.440944667E1,1.037986496E1,-1.567749847E1,1.807790680E0,1.888898256E1
1.441938867E1,9.298064575E0,-1.313608337E1,3.068768463E0,1.638377341E1
1.442932967E1,7.828121338E0,-1.154354507E1,3.203937378E0,1.431076977E1
1.443927067E1,7.197183380E0,-1.065484314E1,2.376907196E0,1.307573397E1
1.444921267E1,7.635621643E0,-1.015039215E1,1.687890015E0,1.281335832E1
1.445915367E1,8.501570892E0,-9.654473419E0,1.481768646E0,1.294917769E1
1.446909467E1,8.680897980E0,-8.686436462E0,1.476379852E0,1.236898806E1
1.447903667E1,8.390950928E0,-7.415878601E0,1.537452850E0,1.130340985E1
1.448897767E1,7.896379395E0,-6.332880707E0,1.615889740E0,1.025033098E1
1.449891867E1,7.118147736E0,-5.526806946E0,1.426982574E0,9.124138396E0
1.450886067E1,5.903274078E0,-4.892575836E0,8.520281982E-1,7.714395324E0
1.451880167E1,4.776118011E0,-4.293222198E0,4.746629333E-1,6.439593543E0
1.452874267E1,3.947141876E0,-3.534300385E0,3.463796997E-1,5.309537371E0
1.453868467E1,3.137325897E0,-2.870430908E0,1.109193420E-1,4.253761921E0
1.454862567E1,2.456242218E0,-2.325264587E0,-4.766088867E-1,3.415719143E0
1.455856667E1,1.534908142E0,-1.883383484E0,-1.252595215E0,2.733508940E0
1.456850867E1,3.375480652E-1,-1.228195953E0,-1.575922852E0,2.026311139E0
1.457844967E1,-6.497987366E-1,-6.390211487E-1,-1.661993866E0,1.895470928E0
1.458839067E1,-1.540596313E0,3.278182983E-2,-1.475781097E0,2.133645120E0
1.459833167E1,-2.232008514E0,7.143145752E-1,-1.098266144E0,2.588106614E0
1.460827367E1,-3.050506439E0,1.347497864E0,-5.595364380E-1,3.381482079E0
1.461821467E1,-4.015399933E0,1.944755859E0,4.635859680E-1,4.485579553E0
1.462815567E1,-4.841232605E0,2.229763184E0,1.870061188E0,5.648584410E0
1.463809429E1,-5.161865845E0,2.054627380E0,3.183280334E0,6.403095061E0
1.464803529E1,-4.616400146E0,1.229992218E0,4.005370789E0,6.234342493E0
1.465797629E1,-2.926264801E0,-1.040336609E-1,3.939358063E0,4.908400008E0
1.466791829E1,-3.487747192E-1,-9.604028320E-1,2.761756897E0,2.944710268E0
1.467785929E1,2.116299133E0,-1.060993652E0,1.373094635E0,2.736753264E0
1.468780029E1,3.914809113E0,-9.894424438E-1,9.852511597E-1,4.156374211E0
1.469774229E1,5.592969360E0,-1.242416382E0,1.810634766E0,6.008602415E0
1.470768329E1,6.814429321E0,-2.171983337E0,2.777623901E0,7.672623615E0
1.471762429E1,7.143445129E0,-4.226461029E0,3.279829559E0,8.924632378E0
1.472756629E1,8.125403137E0,-7.088808746E0,3.825744324E0,1.144157792E1
1.473750729E1,1.089584198E1,-1.040037231E1,4.265230408E0,1.565500901E1
1.474744829E1,1.632175873E1,-1.520657776E1,5.704337769E0,2.302562235E1
1.475739029E1,2.097617981E1,-1.972882370E1,3.367846527E0,2.899256791E1
1.476733129E1,2.167642365E1,-2.131941605E1,-3.475173340E0,3.060166127E1
1.477727229E1,1.951042786E1,-1.989258316E1,-7.928712158E0,2.896957260E1
1.478721329E1,1.493938339E1,-1.708023148E1,-6.400839386E0,2.357732445E1
1.479715529E1,1.085692291E1,-1.478640152E1,-1.102158051E0,1.837730115E1
1.480709629E1,1.077698914E1,-1.492486359E1,3.981719971E0,1.883478542E1
1.481703729E1,1.296034882E1,-1.665421738E1,6.641987915E0,2.212350789E1
1.482697929E1,1.482517090E1,-1.832145035E1,5.726342010E0,2.425391160E1
1.483692029E1,1.585278397E1,-1.905821823E1,3.610042877E0,2.505112475E1
1.484686129E1,1.624646530E1,-1.890523636E1,2.802921295E0,2.508409784E1
1.485680329E1,1.626397888E1,-1.820154968E1,3.911366272E0,2.472068377E1
1.486674429E1,1.554607178E1,-1.637459885E1,6.020330658E0,2.336776019E1
1.487668529E1,1.431533112E1,-1.381088013E1,7.731871490E0,2.134129686E1
1.488662729E1,1.317994217E1,-1.081411194E1,8.081694031E0,1.886715853E1
1.489656829E1,1.193258606E1,-7.846982117E0,7.150031433E0,1.597137088E1
1.490650929E1,1.046698380E1,-5.149591370E0,5.569468231E0,1.292652379E1
1.491645129E1,8.806486816E0,-2.878663788E0,3.854634247E0,1.003489514E1
1.492639229E1,7.089856567E0,-1.025218048E0,2.325414276E0,7.531579499E0
1.493633329E1,5.304070129E0,5.978567505E-1,1.174308014E0,5.465308037E0
1.494627529E1,3.369493103E0,1.932930450E0,4.682263184E-1,3.912664026E0
1.495621629E1,1.456171875E0,2.908601532E0,2.183958435E-1,3.260076095E0
1.496615729E1,-1.372645569E-1,3.327430573E0,2.766247559E-1,3.341729646E0
1.497609829E1,-1.148711243E0,3.139122162E0,2.186952209E-1,3.349843738E0
1.498604029E1,-1.596579895E0,2.589016113E0,-6.122268677E-2,3.042337919E0
1.499598129E1,-1.800904999E0,2.020648041E0,-1.398092651E-1,2.710318053E0
1.500592229E1,-1.918260956E0,1.586850128E0,-1.092727661E-2,2.489565791E0
1.501586429E1,-2.045646057E0,1.208886108E0,1.643582153E-1,2.381824309E0
1.502580529E1,-2.125130768E0,8.123606873E-1,1.975891113E-1,2.283670756E0
1.503574629E1,-2.123484192E0,3.567082214E-1,1.002914429E-1,2.155570514E0
1.504568829E1,-1.934127960E0,-7.634124756E-2,-7.140151978E-2,1.936950472E0
1.505562929E1,-1.549278259E0,-3.968247986E-1,-2.574645996E-1,1.619883041E0
1.506557029E1,-1.186732178E0,-6.429130554E-1,-4.117936707E-1,1.411114625E0
1.507551229E1,-6.327342224E-1,-8.219407654E-1,-5.005590820E-1,1.151737215E0
1.508545329E1,-4.311035156E-2,-9.333091736E-1,-5.903723145E-1,1.105198618E0
1.509539429E1,3.353027344E-1,-1.016536102E0,-7.378157043E-1,1.300055993E0
1.510533629E1,3.761677551E-1,-1.073118439E0,-9.418414307E-1,1.476533320E0
1.511527729E1,4.191284180E-1,-1.181792450E0,-1.071920929E0,1.649641326E0
1.512521829E1,6.168672180E-1,-1.298699341E0,-1.075064392E0,1.795246108E0
1.513515929E1,6.373745728E-1,-1.337019653E0,-1.113684082E0,1.853148708E0
1.514510129E1,6.524931335E-1,-1.543739777E0,-1.098864899E0,2.004091778E0
1.515504229E1,1.057251434E0,-1.866318970E0,-1.124311981E0,2.421777142E0
1.516498329E1,2.037413177E0,-2.335892487E0,-1.156794434E0,3.308416468E0
1.517492529E1,3.258873138E0,-3.291654968E0,-9.479786682E-1,4.727992187E0
1.518486629E1,4.717589722E0,-4.609065399E0,-8.403524780E-1,6.648708816E0
1.519480729E1,7.495063934E0,-6.765630798E0,-9.988728333E-1,1.014630427E1
1.520474929E1,1.520807465E1,-1.159144547E1,-2.776725769E-1,1.912391813E1
1.521469029E1,3.032439011E1,-1.981160156E1,5.383854218E0,3.662040521E1
1.522463129E1,4.068524460E1,-2.702195755E1,2.096645004E1,5.315136259E1
1.523457329E1,3.833797577E1,-2.875116165E1,2.797427719E1,5.548864629E1
1.524451429E1,2.775303726E1,-2.218117401E1,-3.102298737E0,3.566314365E1
1.525445529E1,2.198104019E1,-1.834300552E1,-1.439765991E1,3.204566414E1
1.526439729E1,2.009286667E1,-1.623478958E1,-1.131526978E1,2.820154276E1
1.527433829E1,1.754696091E1,-1.477008545E1,-4.389022980E0,2.335197602E1
1.528427929E1,1.500000732E1,-1.390084305E1,3.376678162E0,2.072765333E1
1.529422029E1,1.622715546E1,-1.347557739E1,6.939419403E0,2.220511882E1
1.530416229E1,1.872590927E1,-1.316138077E1,5.572911072E0,2.355714243E1
1.531410329E1,1.944501389E1,-1.269180725E1,3.508703613E0,2.348406986E1
1.532404429E1,1.815469711E1,-1.200084412E1,2.245031433E0,2.187815013E1
1.533398629E1,1.575398941E1,-1.107037903E1,1.875449982E0,1.934576922E1
1.534392729E1,1.301663177E1,-1.019095779E1,2.078278198E0,1.666155946E1
1.535386829E1,1.014365616E1,-9.469158783E0,2.132914581E0,1.403951755E1
1.536381029E1,7.811805267E0,-8.716374207E0,1.932182007E0,1.186308595E1
1.537375129E1,6.054759064E0,-7.906558228E0,1.863774261E0,1.013150654E1
1.538369229E1,4.530778198E0,-7.094646606E0,2.043400726E0,8.662415834E0
1.539363429E1,3.345393219E0,-6.156846771E0,2.204016724E0,7.345482127E0
1.540357529E1,2.365381165E0,-4.932991791E0,2.071093140E0,5.849689125E0
1.541351629E1,1.612297211E0,-3.570674744E0,1.737436981E0,4.285779706E0
1.542345829E1,1.220861206E0,-2.377505951E0,1.089733887E0,2.886270357E0
1.543339929E1,9.663903809E-1,-1.301543427E0,1.227447510E-1,1.625728124E0
1.544334029E1,6.039939880E-1,-3.034190369E-1,-4.390370178E-1,8.059933948E-1
1.545328129E1,2.531236267E-1,3.980223083E-1,-9.210346985E-1,1.034793817E0
1.546322329E1,-2.761756897E-1,1.028361511E0,-1.110839996E0,1.538754661E0
1.547316429E1,-7.948471069E-1,1.483115845E0,-9.972262573E-1,1.955984341E0
1.548310529E1,-1.271755371E0,1.776805115E0,-6.638694763E-1,2.283663903E0
1.549304729E1,-1.874551849E0,2.249971161E0,1.166075134E-1,2.930855195E0
1.550298829E1,-2.313139801E0,2.652783508E0,9.669891357E-1,3.650060831E0
1.551292929E1,-2.140698395E0,2.752775574E0,1.022224274E0,3.633910489E0
1.552287129E1,-1.634600830E0,2.562371521E0,5.849835205E-1,3.095137057E0
1.553281229E1,-1.297950897E0,2.346819763E0,1.630110168E-1,2.686784719E0
1.554275329E1,-1.119971008E0,2.162103882E0,-1.333726501E-1,2.438609546E0
1.555269529E1,-1.081051941E0,2.047741699E0,-3.132984924E-1,2.336680404E0
1.556263629E1,-1.165027313E0,2.001787262E0,-3.192860413E-1,2.338030038E0
1.557257729E1,-1.200054474E0,1.934277649E0,-3.129991150E-1,2.297722614E0
1.558251929E1,-1.050515442E0,1.684896240E0,-3.653901672E-1,2.018902674E0
1.559246029E1,-6.059399414E-1,1.122366028E0,-4.483177185E-1,1.351982799E0
1.560240129E1,-2.342628479E-1,4.709207153E-1,-5.647755432E-1,7.717621500E-1
1.561234229E1,2.559677124E-2,3.203338623E-2,-5.995033264E-1,6.009039615E-1
1.562228429E1,5.050497437E-1,-4.746629333E-1,-5.159770203E-1,8.640673754E-1
1.563222454E1,1.044827271E0,-1.049617310E0,-4.137396240E-1,1.537706408E0
1.564216554E1,1.712588654E0,-2.223775635E0,2.859054565E-2,2.806947700E0
1.565210754E1,3.279380493E0,-5.650000763E0,1.793121185E0,6.774372932E0
1.566204854E1,5.593119049E0,-1.177077255E1,5.517077179E0,1.415175635E1
1.567198954E1,1.015922379E1,-1.791489578E1,1.010817993E1,2.294185303E1
1.568193154E1,1.524714340E1,-2.216096603E1,1.520717651E1,3.090051804E1
1.569187254E1,1.827699280E1,-2.397788773E1,1.259750336E1,3.267544424E1
1.570181354E1,2.486179962E1,-2.459879654E1,2.014810181E-1,3.497499773E1
1.571175554E1,3.243140854E1,-2.601485184E1,-5.060077515E0,4.188285043E1
1.572169654E1,3.097613480E1,-2.387205780E1,-1.884131927E0,3.915285460E1
1.573163754E1,2.318004684E1,-1.659748535E1,6.336323547E-1,2.851653173E1
1.574157954E1,1.849553833E1,-1.059661423E1,5.345384216E-1,2.132273206E1
1.575152054E1,1.766820877E1,-8.044122162E0,1.185684357E0,1.944940487E1
1.576146154E1,1.819646027E1,-7.605683899E0,2.821033630E0,1.992274641E1
1.577140254E1,1.781161057E1,-9.199419708E0,3.137924652E0,2.029111542E1
1.578134454E1,1.639226212E1,-1.127425507E1,1.300794983E0,1.993758140E1
1.579128554E1,1.488624390E1,-1.326361816E1,-1.094224548E0,1.996800319E1
1.580122654E1,1.380923355E1,-1.482127899E1,-2.771636353E0,2.044620283E1
1.581116854E1,1.253508316E1,-1.524489807E1,-3.238365784E0,2.000055599E1
1.582110954E1,1.085153412E1,-1.458312424E1,-2.289339294E0,1.832114570E1
1.583105054E1,9.104816437E0,-1.324355988E1,-3.516188049E-1,1.607523550E1
1.584099254E1,7.574099579E0,-1.114806747E1,2.090103607E0,1.363872890E1
1.585093354E1,6.593937836E0,-8.292156372E0,4.614753571E0,1.155577016E1
1.586087454E1,6.359375610E0,-5.453309784E0,6.467899933E0,1.058366549E1
1.587081654E1,6.162984009E0,-3.257825317E0,7.147636414E0,9.984212738E0
1.588075754E1,5.460644531E0,-1.693727875E0,6.848408661E0,8.921213706E0
1.589069854E1,4.478387146E0,-6.803352356E-1,6.091432800E0,7.591071138E0
1.590064054E1,3.610342255E0,-1.571731567E-2,5.184768219E0,6.317961674E0
1.591058154E1,2.691253510E0,4.746629333E-1,4.256099396E0,5.057917795E0
1.592052254E1,1.781894531E0,8.710386658E-1,3.415597229E0,3.949703901E0
1.593046354E1,7.921527100E-1,9.735754395E-1,2.475402374E0,2.775422845E0
1.594040554E1,-1.420545959E-1,6.984475708E-1,1.439257050E0,1.606072655E0
1.595034654E1,-1.027912445E0,2.971321106E-1,7.198530579E-1,1.289604556E0
1.596028754E1,-1.906285858E0,-6.436614990E-2,1.613644409E-1,1.914185795E0
1.597022954E1,-2.766097870E0,-4.212240601E-1,-2.785707092E-1,2.811819478E0
1.598017054E1,-3.406765594E0,-6.887178040E-1,-5.035528564E-1,3.511972310E0
1.599011154E1,-3.829187164E0,-9.104067993E-1,-6.438111877E-1,3.988233660E0
1.600005354E1,-4.159849548E0,-1.286275177E0,-4.701722717E-1,4.379487877E0
1.600999454E1,-3.869303741E0,-1.773661652E0,-3.670367432E-1,4.272248011E0
1.601993554E1,-2.894381104E0,-2.076481934E0,-6.427633667E-1,3.619718765E0
1.602987754E1,-2.065105591E0,-2.030228119E0,-8.602610779E-1,3.021015796E0
1.603981854E1,-1.491199036E0,-1.858535156E0,-7.664062500E-1,2.503039359E0
1.604975954E1,-9.641450500E-1,-1.648671570E0,-6.457571411E-1,2.016109101E0
1.605970154E1,-4.791535950E-1,-1.342408447E0,-6.161187744E-1,1.552820322E0
1.606964254E1,-9.924362183E-2,-9.761201477E-1,-6.376739502E-1,1.170165760E0
1.607958354E1,3.608995056E-1,-7.228468323E-1,-5.739065552E-1,9.910220634E-1
1.608952454E1,8.756790161E-1,-8.029302979E-1,-3.427871704E-1,1.236532995E0
1.609946654E1,1.315614166E0,-1.383722534E0,1.586700439E-2,1.909392691E0
1.610940754E1,2.895578613E0,-2.056723022E0,3.811374207E0,5.209708095E0
1.611934854E1,7.325316925E0,-4.494254150E0,2.111254623E1,2.279469668E1
1.612929054E1,1.380863480E1,-1.322664505E1,3.133269333E1,3.670640551E1
1.613923154E1,2.125130768E1,-1.976085709E1,1.466500397E1,3.251417986E1
1.614917254E1,1.702110443E1,-1.591849731E1,-1.888323212E0,2.338123858E1
1.615911454E1,1.512110550E1,-1.320763458E1,-8.682394867E0,2.187403537E1
1.616905554E1,1.941597427E1,-1.463551529E1,-8.168812866E0,2.564971478E1
1.617899654E1,2.273457321E1,-1.605591156E1,-6.747518463E0,2.863882191E1
1.618893854E1,2.185395447E1,-1.563408875E1,-5.689219208E0,2.746611134E1
1.619887954E1,1.680405579E1,-1.252625153E1,-5.221741333E0,2.159976506E1
1.620882054E1,1.299013687E1,-1.017164795E1,-4.261637878E0,1.704017709E1
1.621876254E1,1.281305511E1,-9.812993774E0,-2.587070160E0,1.634509591E1
1.622870354E1,1.621338409E1,-1.315269882E1,-9.610015869E-2,2.087765661E1
1.623864454E1,1.934621933E1,-2.029838928E1,6.009852448E0,2.867785097E1
1.624858554E1,1.850317245E1,-2.506717255E1,8.811576233E0,3.237861032E1
1.625852754E1,1.749052826E1,-2.310954346E1,3.045566711E0,2.914180938E1
1.626846854E1,1.679477509E1,-1.925505890E1,-1.097068634E0,2.557391880E1
1.627840954E1,1.509535904E1,-1.543425430E1,-1.615590363E0,2.164939266E1
1.628835154E1,1.362481705E1,-1.131092880E1,5.126838684E-1,1.771540558E1
1.629829254E1,1.328247894E1,-7.593559113E0,4.431085510E0,1.592861908E1
1.630823354E1,1.333277435E1,-4.418811035E0,8.012088776E0,1.617041525E1
1.631817554E1,1.251472549E1,-2.165546722E0,8.937464447E0,1.553017120E1
1.632811654E1,1.127530289E1,-7.777825928E-1,7.267686768E0,1.343713779E1
1.633805754E1,9.728868713E0,-6.122268677E-2,4.963079224E0,1.092184920E1
1.634799954E1,7.966733093E0,1.263372803E-1,3.296744385E0,8.622837168E0
1.635794054E1,6.212680664E0,-1.517843628E-1,2.582429810E0,6.729738721E0
1.636788154E1,4.491110687E0,-7.662565613E-1,2.389031982E0,5.144385108E0
1.637782254E1,2.617756348E0,-1.583706665E0,2.370470581E0,3.870388336E0
1.638776454E1,7.485932922E-1,-2.214045868E0,2.193239136E0,3.205103575E0
1.639770554E1,-9.375004578E-1,-2.464325409E0,1.835034027E0,3.212344426E0
1.640764654E1,-2.264191589E0,-2.495161285E0,1.372046814E0,3.637981013E0
1.641758854E1,-3.494183807E0,-2.363734589E0,9.286688232E-1,4.319605013E0
1.642752954E1,-4.565655670E0,-2.077380066E0,8.737330627E-1,5.091574324E0
1.643747054E1,-5.413342896E0,-1.860181732E0,1.157093811E0,5.839813650E0
1.644741254E1,-5.600753174E0,-1.775308228E0,1.462009735E0,6.054554309E0
1.645735354E1,-5.423970795E0,-1.771266632E0,1.855391693E0,5.999943583E0
1.646729454E1,-5.145699463E0,-1.922601929E0,1.891915741E0,5.809816375E0
1.647723654E1,-4.320315857E0,-2.211800537E0,1.108295288E0,4.978504712E0
1.648717754E1,-2.964136047E0,-2.285746765E0,7.499404907E-2,3.743843598E0
1.649711854E1,-1.775906982E0,-2.090702362E0,-5.566923523E-1,2.799069194E0
