"Time (s)","Acceleration x (m/s^2)","Acceleration y (m/s^2)","Acceleration z (m/s^2)","Absolute acceleration (m/s^2)"
1.439999975E-2,-4.042044525E0,7.482789459E0,4.542603607E0,9.641862349E0
2.443700004E-2,-3.735332336E0,7.381899261E0,4.806205444E0,9.567902338E0
3.447499964E-2,-3.509452057E0,7.380701752E0,5.120701447E0,9.644303780E0
4.451300018E-2,-3.335962830E0,7.354655914E0,5.306465149E0,9.663238794E0
5.454999954E-2,-3.275189209E0,7.284751282E0,5.227579193E0,9.545787019E0
6.458800007E-2,-3.263663177E0,7.194488983E0,4.846022644E0,9.268015134E0
7.462358288E-2,-3.396437073E0,7.142546997E0,4.322710876E0,9.013189875E0
8.466158342E-2,-3.763473816E0,7.144343262E0,3.966900787E0,8.996759287E0
9.469858278E-2,-3.864064636E0,7.311246185E0,3.649111633E0,9.038878913E0
1.047365833E-1,-3.477867737E0,7.442373505E0,3.611839142E0,8.973843623E0
1.147735827E-1,-2.790048065E0,7.353009338E0,3.961811371E0,8.806081074E0
1.248115832E-1,-1.980381775E0,7.153324585E0,4.872068481E0,8.878570599E0
1.348485835E-1,-1.302890625E0,6.894961853E0,6.438111877E0,9.522988369E0
1.448865831E-1,-9.111552429E-1,6.707551575E0,7.512727203E0,1.011249336E1
1.549235834E-1,-7.334747314E-1,6.692133636E0,8.416847076E0,1.077803101E1
1.649615830E-1,-9.457333374E-1,6.406377869E0,8.769364014E0,1.090127672E1
1.749985833E-1,-1.248104553E0,5.994135132E0,8.343200226E0,1.034873958E1
1.850365829E-1,-1.619033203E0,5.788163452E0,7.949967957E0,9.966247798E0
1.950745834E-1,-2.002685394E0,5.886359253E0,8.008945312E0,1.013919026E1
2.051115828E-1,-2.357447662E0,6.165079651E0,8.134384460E0,1.047539866E1
2.151495833E-1,-2.768043823E0,6.654112701E0,8.262967072E0,1.096430150E1
2.251865827E-1,-3.424428864E0,7.284152527E0,8.498876495E0,1.170540443E1
2.352245832E-1,-2.840642853E0,6.749015350E0,8.441396027E0,1.117477637E1
2.452615835E-1,-1.460063782E0,5.747597809E0,8.030201111E0,9.982524565E0
2.552995831E-1,-4.487667847E-1,4.979694672E0,7.667804718E0,9.153905169E0
2.653365834E-1,-7.783813477E-2,4.552632751E0,7.506140900E0,8.779218356E0
2.753745830E-1,1.258882141E-1,4.248764648E0,7.634424133E0,8.737979213E0
2.854115833E-1,4.477189636E-1,3.971690826E0,8.154143372E0,9.081015054E0
2.954495829E-1,7.162605286E-1,3.795656891E0,8.732839966E0,9.548954615E0
3.054865832E-1,8.890013123E-1,3.667972412E0,9.247170410E0,9.987717734E0
3.155245828E-1,1.261875916E0,3.168012085E0,1.002510269E1,1.058920750E1
3.255615830E-1,1.580263824E0,2.433339844E0,1.081111816E1,1.119368807E1
3.355995826E-1,1.450783081E0,1.683549042E0,1.056023987E1,1.079156036E1
3.456375832E-1,9.129515076E-1,1.413510590E0,1.027987289E1,1.041668274E1
3.556745835E-1,7.041357422E-1,1.951042786E0,1.007719437E1,1.028845087E1
3.657125831E-1,1.055155792E0,2.789299622E0,9.865684204E0,1.030656446E1
3.757495834E-1,1.572929077E0,3.073558502E0,9.786049805E0,1.037726546E1
3.857875830E-1,2.087558899E0,2.939287720E0,9.740843811E0,1.038659485E1
3.958245832E-1,2.509830780E0,2.638114014E0,9.854457550E0,1.050567607E1
4.058625828E-1,2.849324799E0,2.342628479E0,9.941426697E0,1.060370335E1
4.158995831E-1,2.763553162E0,2.362686768E0,9.708511047E0,1.036700061E1
4.259375827E-1,2.363285522E0,2.739303589E0,9.293573914E0,9.972934307E0
4.359745830E-1,1.582958221E0,3.141666870E0,8.933273163E0,9.600999784E0
4.460125826E-1,7.881111145E-1,3.262166290E0,8.860075378E0,9.474375111E0
4.560495829E-1,4.311035156E-1,3.184777222E0,9.089548187E0,9.640982442E0
4.660875835E-1,3.116519165E-1,3.279679871E0,9.397457886E0,9.958194700E0
4.761255831E-1,2.305206299E-1,3.528761902E0,9.771829376E0,1.039201375E1
4.861625833E-1,9.160949707E-2,3.695515137E0,1.019050873E1,1.084028102E1
4.962005829E-1,5.538482666E-2,3.593427429E0,1.038166122E1,1.098611296E1
5.062375832E-1,1.107696533E-2,3.343447266E0,1.049452652E1,1.101425663E1
5.162755828E-1,-1.463955688E-1,3.148702240E0,1.047850983E1,1.094234553E1
5.263125831E-1,-6.249504089E-1,3.243455200E0,1.025517426E1,1.077400407E1
5.363505827E-1,-1.479223938E0,3.736380157E0,1.004935226E1,1.082303659E1
5.463875830E-1,-2.258054352E0,4.329895935E0,9.936936035E0,1.107201454E1
5.564255835E-1,-2.596500549E0,4.395010529E0,9.801617432E0,1.105122785E1
5.664625829E-1,-2.708617401E0,3.607198792E0,9.689350891E0,1.068793769E1
5.765005834E-1,-2.895877991E0,2.898572388E0,9.708061981E0,1.053728137E1
5.865375828E-1,-3.020119629E0,3.225791931E0,9.835596771E0,1.078266294E1
5.965755833E-1,-3.145259399E0,4.353397064E0,9.770332489E0,1.114917574E1
6.066125827E-1,-3.503314819E0,4.933590546E0,9.907896423E0,1.160947638E1
6.166505832E-1,-3.738176422E0,4.379442902E0,9.819430389E0,1.138308817E1
6.266885828E-1,-3.664080505E0,3.320245514E0,9.663155365E0,1.085477258E1
6.367255831E-1,-3.924688568E0,2.687960358E0,9.471853180E0,1.059926006E1
6.467635827E-1,-4.431534576E0,2.612517242E0,8.953930206E0,1.032650043E1
6.568005830E-1,-4.932093658E0,2.638563080E0,8.027207336E0,9.783844878E0
6.668385835E-1,-5.413193207E0,2.578238525E0,6.998995514E0,9.216068185E0
6.768755829E-1,-5.700894928E0,2.264341278E0,6.455326080E0,8.904980584E0
6.869135834E-1,-5.713768158E0,1.788031769E0,6.394402771E0,8.759714092E0
6.969505828E-1,-5.291945343E0,1.411714325E0,6.389612732E0,8.415745583E0
7.069885833E-1,-4.449796600E0,1.275198212E0,6.372548218E0,7.876305673E0
7.170255827E-1,-3.400927734E0,1.326691132E0,6.338269501E0,7.314374825E0
7.270635832E-1,-2.560874634E0,1.369352417E0,6.344257050E0,6.977306245E0
7.371005835E-1,-1.816322937E0,1.451381836E0,6.524482269E0,6.926355978E0
7.471385831E-1,-9.512718201E-1,1.440155182E0,6.929240570E0,7.140962113E0
7.571755834E-1,-2.085163879E-1,1.465452576E0,7.427554321E0,7.573611657E0
7.672135830E-1,4.538562012E-1,1.726360016E0,7.984695740E0,8.181788949E0
7.772515835E-1,1.678160248E0,2.201621704E0,9.027277679E0,9.442197956E0
7.872885829E-1,3.366948395E0,3.369493103E0,1.058149567E1,1.160421802E1
7.973265834E-1,4.953349457E0,5.035079498E0,1.174742111E1,1.370728271E1
8.073635828E-1,6.063441010E0,6.432723083E0,1.174113419E1,1.469692060E1
8.174015833E-1,6.812034302E0,7.170987854E0,1.087174210E1,1.469767513E1
8.274385827E-1,7.292684784E0,7.270530853E0,9.814490662E0,1.422561412E1
8.374765832E-1,7.303911438E0,7.024741974E0,9.035660248E0,1.357708651E1
8.475135835E-1,6.916966095E0,6.592740326E0,8.695717163E0,1.291991261E1
8.575515831E-1,6.225853271E0,6.150110779E0,8.703201599E0,1.234223763E1
8.675885834E-1,5.296735382E0,5.677842865E0,8.825646973E0,1.175522649E1
8.776265830E-1,4.542304230E0,5.162015533E0,8.878187714E0,1.122947680E1
8.876635833E-1,4.139042816E0,4.788841553E0,8.954678650E0,1.096589935E1
8.977015829E-1,4.011208649E0,4.589306488E0,9.175319824E0,1.101535395E1
9.077395834E-1,4.209396515E0,4.668940887E0,9.738448792E0,1.159117824E1
9.177765828E-1,4.497247925E0,4.861440582E0,1.053748718E1,1.244578160E1
9.278145833E-1,5.043911133E0,4.911286926E0,1.094943054E1,1.301736563E1
9.378515827E-1,5.609584808E0,4.750072174E0,1.083716400E1,1.309483681E1
9.478895832E-1,5.798042908E0,4.802313538E0,1.106394241E1,1.338246385E1
9.579265835E-1,5.895639954E0,5.096302185E0,1.127051285E1,1.370238396E1
9.679645831E-1,6.153852997E0,5.179229736E0,1.126856689E1,1.384467144E1
9.780015834E-1,6.381379852E0,5.064568176E0,1.166179916E1,1.422566060E1
9.880395830E-1,6.097570038E0,4.804109802E0,1.248359024E1,1.470033526E1
9.980765833E-1,5.224884796E0,4.405039673E0,1.295002029E1,1.464263710E1
1.008114583E0,4.127965851E0,3.841910706E0,1.283236496E1,1.401677461E1
1.018151583E0,3.257975006E0,3.062481537E0,1.242072098E1,1.320104177E1
1.028189583E0,2.568658447E0,2.319875793E0,1.162677200E1,1.213102045E1
1.038227583E0,1.638941803E0,1.802102509E0,1.088102280E1,1.115035250E1
1.048264583E0,4.564009094E-1,1.411414948E0,1.024065445E1,1.034753099E1
1.058302583E0,-7.509883118E-1,9.330097961E-1,9.580826569E0,9.655398928E0
1.068339583E0,-1.467697906E0,3.737727356E-1,9.222920837E0,9.346449164E0
1.078377458E0,-1.490151215E0,-1.377136230E-2,9.022487640E0,9.144726541E0
1.088414458E0,-1.693428497E0,-2.276765442E-1,8.738827515E0,8.904304746E0
1.098452458E0,-2.406994629E0,-5.930667114E-1,8.234675903E0,8.599723164E0
1.108489458E0,-3.056493988E0,-1.196761322E0,7.576045532E0,8.256564604E0
1.118527458E0,-3.481160889E0,-2.155068512E0,7.212152252E0,8.293246743E0
1.128564458E0,-3.670666809E0,-3.229983215E0,7.381150818E0,8.853698311E0
1.138602458E0,-4.631818085E0,-3.428769836E0,7.248825989E0,9.260436252E0
1.148639458E0,-6.655160522E0,-2.778671722E0,6.808142395E0,9.917811300E0
1.158677458E0,-8.238268433E0,-2.549198914E0,6.813830566E0,1.099071285E1
1.168715458E0,-9.168583832E0,-2.611319733E0,6.763684845E0,1.168885593E1
1.178752458E0,-1.002300705E1,-2.365680542E0,6.405629425E0,1.212803377E1
1.188790458E0,-1.080363373E1,-1.829645233E0,6.121220856E0,1.255131261E1
1.198827459E0,-1.168559967E1,-1.129401398E0,6.129603424E0,1.324389766E1
1.208865458E0,-1.259046799E1,3.517684937E-2,6.586303711E0,1.420917021E1
1.218902458E0,-1.348875000E1,1.202748871E0,7.285799103E0,1.537777129E1
1.228940458E0,-1.381088013E1,1.773961029E0,8.018525391E0,1.606810807E1
1.238977458E0,-1.341884537E1,1.742376709E0,8.659791870E0,1.606528191E1
1.249015458E0,-1.269525009E1,1.600621490E0,9.046587524E0,1.567074057E1
1.259052458E0,-1.210607529E1,1.714983673E0,8.976233826E0,1.516809156E1
1.269090458E0,-1.180804504E1,2.198178864E0,8.074508972E0,1.447271962E1
1.279127458E0,-1.146256348E1,2.903661804E0,6.634503479E0,1.355869646E1
1.289165458E0,-1.061278061E1,3.529809723E0,5.501808929E0,1.246437204E1
1.299203458E0,-9.286089478E0,3.879482574E0,5.152585144E0,1.130623618E1
1.309240459E0,-7.831264801E0,3.955374756E0,5.560037842E0,1.038690130E1
1.319278458E0,-6.433321838E0,3.972588959E0,6.422544250E0,9.920593105E0
1.329315458E0,-4.982538757E0,4.083657990E0,7.320975952E0,9.751853359E0
1.339353458E0,-3.561843109E0,4.421954498E0,8.036937103E0,9.840364115E0
1.349390458E0,-2.224374390E0,4.880900116E0,8.697962494E0,1.021888345E1
1.359428458E0,-8.309220886E-1,5.169649658E0,9.449399872E0,1.080309525E1
1.369465458E0,2.624043274E-1,5.219795380E0,1.002989273E1,1.130990133E1
1.379503458E0,9.090596008E-1,5.141957245E0,1.055320450E1,1.177438911E1
1.389540458E0,1.118025055E0,4.862338715E0,1.108415039E1,1.215527489E1
1.399578458E0,1.049766998E0,4.409230957E0,1.136182297E1,1.223251199E1
1.409615458E0,7.873626709E-1,3.895349579E0,1.137289993E1,1.204726281E1
1.419653459E0,3.614982605E-1,3.505260773E0,1.123488693E1,1.177455810E1
1.429690458E0,-2.270777893E-1,3.193459167E0,1.117007172E1,1.161982134E1
1.439728458E0,-6.779402161E-1,2.955603790E0,1.112546448E1,1.153131200E1
1.449766458E0,-1.002914429E0,2.723286896E0,1.093521011E1,1.131375044E1
1.459803458E0,-1.070424042E0,2.441722412E0,1.057221497E1,1.090318968E1
1.469841458E0,-9.369017029E-1,2.238145752E0,1.030576904E1,1.058753781E1
1.479878458E0,-8.888516235E-1,2.002685394E0,1.026250900E1,1.049380279E1
1.489916458E0,-9.740245056E-1,1.695524139E0,1.036040543E1,1.054331667E1
1.499953458E0,-1.264570312E0,1.338067474E0,1.039288788E1,1.055469948E1
1.509991458E0,-1.766626282E0,9.767189026E-1,1.034962784E1,1.054465479E1
1.520028458E0,-2.291434937E0,7.038363647E-1,1.022718246E1,1.050434771E1
1.530066459E0,-2.758912811E0,3.299139404E-1,1.013003448E1,1.050419163E1
1.540103458E0,-3.235970764E0,-2.061213684E-1,1.004950195E1,1.055966298E1
1.550141458E0,-3.756139069E0,-5.408253479E-1,1.002195923E1,1.071637716E1
1.560178458E0,-4.221820679E0,-3.986210632E-1,1.032612671E1,1.116295487E1
1.570216458E0,-4.447700958E0,-1.237925720E-1,1.064930466E1,1.154144957E1
1.580254458E0,-4.112398224E0,-3.076103210E-1,1.016985168E1,1.097416633E1
1.590291458E0,-3.158432007E0,-1.440903625E0,8.654702454E0,9.325007805E0
1.600329458E0,-3.417992249E0,-1.382824402E0,7.415130157E0,8.281245654E0
1.610366458E0,-4.424648895E0,-2.868035889E-1,6.376440125E0,7.766515487E0
1.620404458E0,-5.533992004E0,1.343156891E0,5.878575439E0,8.184545628E0
1.630441458E0,-6.264922028E0,2.738555145E0,5.238955536E0,8.613686052E0
1.640479458E0,-5.730084229E0,3.450774078E0,4.094136200E0,7.842426807E0
1.650516458E0,-5.122497711E0,3.587888947E0,3.454067230E0,7.144474111E0
1.660554458E0,-4.757706299E0,3.475323029E0,3.181035004E0,6.695716771E0
1.670591458E0,-4.588408356E0,3.442092133E0,3.364703064E0,6.650016255E0
1.680629458E0,-4.562212830E0,3.726051636E0,4.373006287E0,7.336240909E0
1.690666458E0,-4.629572754E0,4.148772583E0,5.918542328E0,8.583379353E0
1.700704458E0,-4.512067108E0,4.543801117E0,7.139553223E0,9.590521279E0
1.710742458E0,-4.047133942E0,4.217030640E0,8.245154114E0,1.010669120E1
1.720779458E0,-4.135300598E0,2.043550415E0,9.264534302E0,1.034931907E1
1.730817458E0,-3.262914734E0,2.196681976E0,8.036338348E0,8.947332469E0
1.740854458E0,-3.316353607E0,3.173101501E0,9.309440918E0,1.037942506E1
1.750892458E0,-4.200415192E0,3.296894073E0,8.704848175E0,1.021211927E1
1.760929458E0,-4.656217346E0,3.567680969E0,7.706873474E0,9.685277808E0
1.770967458E0,-5.191803589E0,4.050277405E0,6.763235779E0,9.439328883E0
1.781004458E0,-5.992039490E0,4.486470337E0,6.209537201E0,9.725806166E0
1.791042458E0,-6.778953094E0,4.745431824E0,5.831273804E0,1.012309648E1
1.801079458E0,-7.219187622E0,4.814737701E0,5.765710144E0,1.041833876E1
1.811117458E0,-7.121740265E0,4.622088318E0,6.091582489E0,1.044941444E1
1.821154458E0,-6.624474335E0,4.225263519E0,6.608307953E0,1.026675441E1
1.831192458E0,-6.049669647E0,3.844305725E0,7.136110382E0,1.011440857E1
1.841230458E0,-5.544470215E0,3.584146729E0,7.703580322E0,1.014556098E1
1.851267458E0,-5.334756317E0,3.432062988E0,8.162675629E0,1.033769581E1
1.861305458E0,-5.238805847E0,3.440744934E0,8.525371399E0,1.058138790E1
1.871342458E0,-5.326972504E0,3.542682953E0,8.832083588E0,1.090563795E1
1.881380458E0,-5.432652740E0,3.742068329E0,9.230704651E0,1.134560265E1
1.891417458E0,-5.379812622E0,3.964056702E0,9.625284119E0,1.171760316E1
1.901455458E0,-5.085973663E0,4.079167328E0,9.833052063E0,1.179812049E1
1.911492459E0,-4.596790924E0,4.143683167E0,9.806257782E0,1.159583066E1
1.921530458E0,-4.092339935E0,4.285588074E0,9.649234314E0,1.132348154E1
1.931567458E0,-3.666924591E0,4.501588898E0,9.426347809E0,1.107098332E1
1.941605458E0,-3.280128937E0,4.812192993E0,9.291478271E0,1.096576562E1
1.951642458E0,-2.966980133E0,5.109025726E0,9.228609009E0,1.095775247E1
1.961680458E0,-2.751428375E0,5.319188690E0,9.278155975E0,1.104302063E1
1.971718458E0,-2.627336426E0,5.477110291E0,9.478439484E0,1.125799489E1
1.981755458E0,-2.533481598E0,5.499563599E0,9.690847778E0,1.142699696E1
1.991793458E0,-2.452500000E0,5.321733398E0,9.778415680E0,1.139969367E1
2.001830458E0,-2.450404358E0,5.095104675E0,9.767638092E0,1.128589062E1
2.011868458E0,-2.620450745E0,4.893324280E0,9.714049530E0,1.118812508E1
2.021905459E0,-2.824476471E0,4.668192444E0,9.656119995E0,1.109100272E1
2.031943458E0,-2.937042389E0,4.365222473E0,9.707612915E0,1.104169977E1
2.041980458E0,-2.930007019E0,4.135899353E0,9.817035370E0,1.104829344E1
2.052018458E0,-2.839595032E0,4.083807678E0,1.006836273E1,1.122999168E1
2.062055458E0,-2.771636353E0,4.041745148E0,1.026999344E1,1.137938650E1
2.072093458E0,-2.778522034E0,3.847898254E0,1.038779846E1,1.142072075E1
2.082130500E0,-2.935545502E0,3.642375641E0,1.029005173E1,1.130351681E1
2.092168500E0,-3.218307495E0,3.523223419E0,1.006447083E1,1.113841009E1
2.102205500E0,-3.323388977E0,3.536396027E0,9.806407471E0,1.094150989E1
2.112243500E0,-3.291355591E0,3.573069763E0,9.438173218E0,1.061503475E1
2.122281500E0,-3.071911926E0,3.607647858E0,9.035660248E0,1.020269190E1
2.132318499E0,-2.800675964E0,3.709585876E0,8.773405609E0,9.928618193E0
2.142356500E0,-2.660717010E0,3.891906738E0,8.733438721E0,9.924681605E0
2.152393499E0,-2.448608093E0,4.076323242E0,8.861123199E0,1.005642069E1
2.162431500E0,-2.122286682E0,4.230203247E0,9.082812195E0,1.024188448E1
2.172468500E0,-1.670675812E0,4.338577881E0,9.370663605E0,1.046058087E1
2.182506500E0,-1.323248291E0,4.415218506E0,9.603279877E0,1.065214180E1
2.192543500E0,-1.162033539E0,4.202660522E0,9.662406921E0,1.060069738E1
2.202581500E0,-1.038690033E0,3.582649841E0,9.744735718E0,1.043427674E1
2.212618500E0,-8.491841125E-1,2.707270203E0,9.583820343E0,9.995000649E0
2.222656500E0,-5.658233643E-1,1.752854919E0,8.515491943E0,8.712419841E0
2.232693500E0,-1.577719116E-1,1.247655487E0,7.089257813E0,7.199938369E0
2.242731499E0,5.316943359E-1,1.143023071E0,5.616919556E0,5.756647106E0
2.252768500E0,1.080004120E0,1.487007751E0,4.401896210E0,4.770145825E0
2.262806499E0,1.564546509E0,2.428100739E0,3.541186066E0,4.569844388E0
2.272844500E0,1.511706390E0,3.768114166E0,3.132535858E0,5.128032906E0
2.282881500E0,4.671784973E-1,5.056484985E0,3.991000671E0,6.458667240E0
2.292919500E0,-1.134191437E0,5.577252045E0,6.378835144E0,8.548781690E0
2.302956500E0,-2.640209656E0,4.496798859E0,9.086853790E0,1.047677521E1
2.312994500E0,-3.844605103E0,2.360890503E0,1.163680115E1,1.248078256E1
2.323031500E0,-4.610113220E0,3.362008667E-1,1.375504623E1,1.451094318E1
2.333069500E0,-4.913083191E0,-1.343755646E0,1.490660156E1,1.575280406E1
2.343106500E0,-4.819078674E0,-2.302960968E0,1.569396423E1,1.657792695E1
2.353144499E0,-3.907474365E0,-2.637066193E0,1.595127914E1,1.663327329E1
2.363181500E0,-2.578388214E0,-2.643203430E0,1.538785080E1,1.582468206E1
2.373219499E0,-1.359772339E0,-2.170037384E0,1.458656708E1,1.480965841E1
2.383256500E0,-6.515950012E-1,-1.277144165E0,1.385324203E1,1.392723907E1
2.393294500E0,-4.198768616E-1,-2.652484131E-1,1.294373337E1,1.295325777E1
2.403332500E0,-2.335144043E-1,6.846762085E-1,1.182690582E1,1.184900890E1
2.413369500E0,-9.310638428E-2,1.359922028E0,1.059885956E1,1.068615369E1
2.423407500E0,-1.654060364E-1,1.683549042E0,9.504934387E0,9.654298226E0
2.433444500E0,-4.396357727E-1,1.799857178E0,8.875343628E0,9.066669178E0
2.443482500E0,-4.763095093E-1,1.882335663E0,8.791218567E0,9.003087370E0
2.453519500E0,-1.704954529E-1,1.972448273E0,9.147028656E0,9.358832947E0
2.463557499E0,4.378395081E-1,1.926493835E0,9.831704865E0,1.002823526E1
2.473594500E0,1.165177002E0,1.785037994E0,1.058568695E1,1.079818347E1
2.483632499E0,1.886077881E0,1.648970947E0,1.126647125E1,1.154165367E1
2.493669500E0,2.536026306E0,1.628463593E0,1.161270126E1,1.199742280E1
2.503707500E0,3.042123871E0,1.742376709E0,1.139774826E1,1.192472472E1
2.513744500E0,3.222049713E0,1.977837067E0,1.067520081E1,1.132489983E1
2.523782500E0,2.930905151E0,2.295925598E0,9.872869263E0,1.055154144E1
2.533820500E0,2.224224701E0,2.567610626E0,9.212143250E0,9.818522450E0
2.543857500E0,1.343007202E0,2.584974518E0,8.817563782E0,9.286290575E0
2.553895500E0,4.517605591E-1,2.384691010E0,8.825796661E0,9.153443370E0
2.563932500E0,-2.158511353E-1,2.065704346E0,9.178014221E0,9.410083485E0
2.573970499E0,-6.565347290E-1,1.656305695E0,9.710157623E0,9.872261518E0
2.584007500E0,-9.583071899E-1,1.204694824E0,1.030951126E1,1.042380280E1
2.594045499E0,-1.168170776E0,8.229885864E-1,1.087518494E1,1.096866357E1
2.604082500E0,-1.355581055E0,4.641847229E-1,1.118189713E1,1.127332652E1
2.614120500E0,-1.582209778E0,1.074765015E-1,1.115555191E1,1.126770950E1
2.624157500E0,-1.591340790E0,-2.031275940E-1,1.103535187E1,1.115135046E1
2.634195500E0,-1.489851837E0,-3.468287659E-1,1.085377945E1,1.096104361E1
2.644232499E0,-1.424886932E0,-2.330653381E-1,1.070648575E1,1.080340036E1
2.654270500E0,-1.336121521E0,9.116043091E-2,1.065858536E1,1.074239139E1
2.664308500E0,-1.103505249E0,5.072950745E-1,1.055080948E1,1.062048270E1
2.674345500E0,-6.950047302E-1,8.448431396E-1,1.029394363E1,1.035191128E1
2.684383499E0,-3.385958862E-1,1.055305481E0,1.004875351E1,1.010968664E1
2.694420500E0,-1.978884888E-1,1.047821045E0,9.833650818E0,9.891298055E0
2.704458499E0,-1.815724182E-1,8.634045410E-1,9.790091400E0,9.829767320E0
2.714495500E0,-3.121009827E-1,5.760021973E-1,1.009770172E1,1.011893105E1
2.724533500E0,-5.477110291E-1,2.856060791E-1,1.047267197E1,1.049087300E1
2.734570500E0,-9.083111572E-1,6.227050781E-2,1.057161621E1,1.061074814E1
2.744608500E0,-1.206640778E0,-8.262817383E-2,1.046863037E1,1.053826510E1
2.754645499E0,-1.415456543E0,-3.787124634E-2,1.040725800E1,1.050314098E1
2.764683500E0,-1.573378143E0,1.478924561E-1,1.030232620E1,1.042282669E1
2.774720499E0,-1.720073090E0,3.137475586E-1,1.000639160E1,1.015799989E1
2.784758500E0,-1.820214844E0,3.739224243E-1,9.497749329E0,9.677822191E0
2.794796499E0,-2.003882904E0,4.068539429E-1,8.950487366E0,9.181083863E0
2.804833500E0,-2.288441162E0,4.567002869E-1,8.451125793E0,8.767386457E0
2.814871499E0,-2.600991211E0,4.860392761E-1,8.210576019E0,8.626409915E0
2.824908500E0,-2.785856781E0,5.060975647E-1,8.315507812E0,8.784349887E0
2.834946500E0,-2.713856506E0,5.944139099E-1,8.682694244E0,9.116332836E0
2.844983499E0,-2.461181946E0,6.491999817E-1,9.176667023E0,9.523134717E0
2.855021500E0,-2.219135284E0,5.863307190E-1,9.742490387E0,1.000921895E1
2.865058499E0,-1.930685120E0,4.746629333E-1,1.013721954E1,1.033034704E1
2.875096500E0,-1.662143555E0,3.451821899E-1,1.020936951E1,1.034954577E1
2.885133500E0,-1.556613007E0,2.742297363E-1,1.007090744E1,1.019418573E1
2.895171500E0,-1.755100250E0,3.435356140E-1,9.758058014E0,9.920589187E0
2.905208500E0,-2.037263489E0,4.170327759E-1,9.583970032E0,9.806979169E0
2.915246500E0,-2.142494659E0,4.740641785E-1,9.599238281E0,9.846846997E0
2.925283500E0,-2.119292908E0,4.698728943E-1,9.715696106E0,9.955246546E0
2.935321500E0,-2.028581543E0,4.408332825E-1,9.844278717E0,1.006078031E1
2.945359500E0,-1.919458466E0,4.831951904E-1,9.827363892E0,1.002471343E1
2.955396499E0,-1.689386902E0,6.062393188E-1,9.712402954E0,9.876858071E0
2.965434500E0,-1.425186310E0,7.770341492E-1,9.474547577E0,9.612595377E0
2.975471499E0,-1.118923187E0,9.541159058E-1,9.032367096E0,9.151283058E0
2.985509500E0,-7.191046143E-1,1.154698792E0,8.488248596E0,8.596557740E0
2.995546500E0,-3.520678711E-1,1.443897400E0,8.065827026E0,8.201606983E0
3.005584500E0,-1.812730408E-1,1.825004883E0,7.711364136E0,7.926451890E0
3.015621500E0,-2.149530029E-1,2.173929291E0,7.364834747E0,7.681989600E0
3.025659500E0,-3.576063538E-1,2.559826813E0,7.178172913E0,7.629335618E0
3.035696500E0,-5.291496277E-1,3.110082550E0,7.220684509E0,7.879777762E0
3.045734500E0,-7.116201782E-1,3.603905640E0,7.379953308E0,8.243679395E0
3.055771500E0,-8.246351624E-1,3.876488800E0,7.497908020E0,8.480908751E0
3.065809499E0,-9.822573853E-1,3.979923706E0,7.628137207E0,8.659855630E0
3.075847125E0,-1.141376495E0,3.942202148E0,7.787705383E0,8.802957073E0
3.085884125E0,-1.265917511E0,3.753893738E0,7.976911926E0,8.906480181E0
3.095922125E0,-1.295256500E0,3.489244080E0,8.155490570E0,8.964627158E0
3.105959125E0,-1.164428558E0,3.264561310E0,8.378826141E0,9.067413188E0
3.115997124E0,-1.066382446E0,3.112926636E0,8.638685760E0,9.244153581E0
3.126034125E0,-9.813592529E-1,2.959346008E0,8.891060944E0,9.421876643E0
3.136072124E0,-8.640032959E-1,2.792742462E0,9.015003204E0,9.477140652E0
3.146109125E0,-7.602690125E-1,2.650687866E0,9.021140442E0,9.433192991E0
3.156147125E0,-7.598199463E-1,2.519261169E0,8.838370514E0,9.221756694E0
3.166184125E0,-9.241781616E-1,2.423161011E0,8.550968170E0,8.935595739E0
3.176222125E0,-1.194815369E0,2.417023773E0,8.234526215E0,8.664699052E0
3.186259124E0,-1.436712341E0,2.456990662E0,7.935897217E0,8.430860579E0
3.196297125E0,-1.583556976E0,2.540217590E0,7.760312347E0,8.317620202E0
3.206334124E0,-1.625619507E0,2.644101562E0,7.700287170E0,8.302308978E0
3.216372125E0,-1.590891724E0,2.778821411E0,7.714357910E0,8.352490819E0
3.226410124E0,-1.450184326E0,2.933749237E0,7.752229156E0,8.414688114E0
3.236447125E0,-1.228046265E0,3.174748077E0,7.814349976E0,8.523566655E0
3.246485124E0,-9.925859070E-1,3.442391510E0,7.890990601E0,8.666199787E0
3.256522125E0,-9.029223633E-1,3.699407043E0,7.920179901E0,8.788067531E0
3.266560125E0,-9.476792908E-1,3.922742615E0,7.953710175E0,8.918941148E0
3.276597125E0,-1.069974976E0,4.103267212E0,8.062084808E0,9.109273282E0
3.286635125E0,-1.232387238E0,4.266427917E0,8.257578278E0,9.375968456E0
3.296672124E0,-1.347048798E0,4.328997803E0,8.398884430E0,9.544423613E0
3.306710125E0,-1.376986542E0,4.366419983E0,8.458310852E0,9.617938338E0
3.316747124E0,-1.362915802E0,4.354893951E0,8.484805756E0,9.634031841E0
3.326785125E0,-1.327738953E0,4.354744263E0,8.499924316E0,9.642375314E0
3.336822125E0,-1.230441284E0,4.373305664E0,8.484955444E0,9.624669193E0
3.346860125E0,-1.121168518E0,4.353696442E0,8.484506378E0,9.602007084E0
3.356898124E0,-1.036145325E0,4.357588348E0,8.668922882E0,9.757684012E0
3.366935125E0,-1.057700500E0,4.380939789E0,9.046437836E0,1.010689870E1
3.376973125E0,-1.083746338E0,4.349954224E0,9.573641510E0,1.057124494E1
3.387010125E0,-9.855505371E-1,4.209396515E0,1.000863693E1,1.090243744E1
3.397048125E0,-7.343728638E-1,3.948788452E0,1.021879990E1,1.097980442E1
3.407085124E0,-4.227209473E-1,3.594175873E0,1.019155655E1,1.081501817E1
3.417123125E0,-1.267863464E-1,3.229983215E0,1.002270767E1,1.053107475E1
3.427160124E0,2.020797729E-1,2.967279510E0,9.907447357E0,1.034423013E1
3.437198125E0,5.016069031E-1,2.774929504E0,9.817185059E0,1.021415516E1
3.447235125E0,7.511380005E-1,2.591261444E0,9.747130737E0,1.011362456E1
3.457273125E0,9.300160217E-1,2.433639221E0,9.777367859E0,1.011852024E1
3.467310125E0,9.467811584E-1,2.279310150E0,9.843829651E0,1.014852854E1
3.477348125E0,9.057664490E-1,2.072140961E0,9.896969147E0,1.015205296E1
3.487386125E0,8.774752808E-1,1.896705780E0,1.001582199E1,1.023152705E1
3.497423124E0,8.331674194E-1,1.759141846E0,1.023810974E1,1.042149889E1
3.507461125E0,8.707392883E-1,1.667083282E0,1.046848068E1,1.063609145E1
3.517498124E0,1.007554779E0,1.657054138E0,1.066921326E1,1.084403553E1
3.527536125E0,1.192869415E0,1.533261566E0,1.068897217E1,1.086406712E1
3.537573125E0,1.368454285E0,1.229393463E0,1.047895889E1,1.063920368E1
3.547611125E0,1.427132263E0,7.960446167E-1,1.008976822E1,1.022124338E1
3.557648125E0,1.445094910E0,3.932322693E-1,9.619745636E0,9.735627202E0
3.567686125E0,1.345701599E0,1.767823792E-1,9.365873566E0,9.463707120E0
3.577723125E0,1.351689148E0,3.243754578E-1,9.417216797E0,9.519257071E0
3.587761125E0,1.610950012E0,7.878117371E-1,9.531429291E0,9.698657206E0
3.597798125E0,1.937570801E0,1.119072876E0,9.534722443E0,9.793744778E0
3.607836124E0,2.341430969E0,1.251397705E0,9.547745361E0,9.909981669E0
3.617873125E0,2.760709076E0,1.319655762E0,9.574240265E0,1.005132243E1
3.627911124E0,3.019221497E0,1.298849030E0,9.745035095E0,1.028437729E1
3.637949125E0,3.090173950E0,1.264570312E0,1.007180557E1,1.061082375E1
3.647986125E0,3.040028229E0,1.157393188E0,1.044842239E1,1.094307366E1
3.658024125E0,2.989433441E0,9.882449341E-1,1.085886887E1,1.130612106E1
3.668061125E0,2.983146515E0,8.334667969E-1,1.102322708E1,1.145012512E1
3.678099125E0,2.955154724E0,6.427633667E-1,1.100017502E1,1.140832742E1
3.688136125E0,2.887944489E0,4.013154602E-1,1.094523926E1,1.132693868E1
3.698174125E0,2.722688141E0,1.627116394E-1,1.073357941E1,1.107471140E1
3.708211125E0,2.392175446E0,4.191284180E-3,1.044048889E1,1.071103773E1
3.718249124E0,2.083068237E0,2.215393066E-2,1.012569351E1,1.033776248E1
3.728286125E0,1.820963287E0,2.221380615E-1,9.675729218E0,9.848095679E0
3.738324124E0,1.620829468E0,5.704637146E-1,9.157806244E0,9.317614084E0
3.748361125E0,1.530866547E0,1.021775208E0,8.574469299E0,8.769783391E0
3.758399125E0,1.429826660E0,1.456770630E0,8.016579437E0,8.272371535E0
3.768437125E0,1.345252533E0,1.897154846E0,7.531737671E0,7.882637454E0
3.778474125E0,1.307680664E0,2.295925598E0,7.090904388E0,7.567180989E0
3.788512125E0,1.257085876E0,2.620600433E0,6.682403870E0,7.287134760E0
3.798549125E0,1.178948364E0,2.846929779E0,6.288722534E0,7.003067865E0
3.808587125E0,1.084494781E0,2.967878265E0,5.966891785E0,6.751905501E0
3.818624125E0,9.663903809E-1,3.024011536E0,5.736820221E0,6.556650241E0
3.828662124E0,7.987390137E-1,3.051554260E0,5.626649323E0,6.450515484E0
3.838699125E0,5.028044128E-1,3.037932587E0,5.611979828E0,6.401262709E0
3.848737124E0,2.688409424E-1,3.020269318E0,5.622308350E0,6.387852016E0
3.858774125E0,1.258882141E-1,3.114872589E0,5.846991119E0,6.626128903E0
3.868812125E0,-4.685256958E-2,3.245999908E0,6.339317322E0,7.122194513E0
3.878849125E0,-1.595681763E-1,3.314407654E0,6.924151154E0,7.678191799E0
3.888887125E0,-7.469467163E-2,3.408112793E0,7.648345184E0,8.373648916E0
3.898925125E0,2.339634705E-1,3.553161163E0,8.447084198E0,9.166947398E0
3.908962125E0,6.399192810E-1,3.626209259E0,8.936865692E0,9.665736324E0
3.919000125E0,1.137334900E0,3.473676453E0,8.872798920E0,9.596172124E0
3.929037125E0,1.634600830E0,3.234473877E0,8.650511169E0,9.378970339E0
3.939075124E0,2.105222168E0,3.122357025E0,8.394393768E0,9.200376107E0
3.949112125E0,2.361788635E0,3.248095551E0,8.285121002E0,9.207138550E0
3.959150124E0,2.599344635E0,3.699706421E0,8.500223694E0,9.627991638E0
3.969187125E0,2.841540985E0,4.301904144E0,8.932824097E0,1.031387807E1
3.979225125E0,3.164120178E0,4.797972565E0,9.470955048E0,1.107841084E1
3.989262125E0,3.391796722E0,5.071304169E0,1.002644989E1,1.173678441E1
3.999300125E0,3.363954620E0,5.151537323E0,1.051069290E1,1.217904728E1
4.009337124E0,3.207380219E0,5.080584869E0,1.098595459E1,1.252161446E1
4.019375125E0,2.994522858E0,4.877457275E0,1.136317017E1,1.272314398E1
4.029413125E0,2.791245575E0,4.553530884E0,1.139026382E1,1.258029433E1
4.039450125E0,2.694247284E0,4.249213715E0,1.112351852E1,1.220849909E1
4.049488124E0,2.561623077E0,4.053271179E0,1.071127579E1,1.173551656E1
4.059525125E0,2.306553497E0,3.976929932E0,1.031504974E1,1.129320202E1
4.069563124E0,1.956581268E0,3.947141876E0,9.903256073E0,1.083893999E1
4.079600874E0,1.505419464E0,3.920048218E0,9.541907501E0,1.042502108E1
4.089638875E0,9.328601074E-1,3.929927673E0,9.301357727E0,1.014050369E1
4.099675875E0,3.537144470E-1,3.952979736E0,9.188791809E0,1.000924860E1
4.109713875E0,-1.827699280E-1,3.886368256E0,9.100625153E0,9.897405783E0
4.119750875E0,-6.135740662E-1,3.750301208E0,9.043444061E0,9.809439983E0
4.129788875E0,-1.012045441E0,3.526815948E0,8.975934448E0,9.696910123E0
4.139825875E0,-1.309027863E0,3.313659210E0,8.877888336E0,9.566127357E0
4.149863875E0,-1.480421448E0,3.049159241E0,8.763975220E0,9.396610101E0
4.159901875E0,-1.534908142E0,2.779569855E0,8.637488251E0,9.202616740E0
4.169938874E0,-1.522034912E0,2.522704010E0,8.580456848E0,9.072202903E0
4.179976875E0,-1.360820160E0,2.429148560E0,8.770561523E0,9.201920651E0
4.190013874E0,-9.464817810E-1,2.485281830E0,9.217831421E0,9.593793287E0
4.200051875E0,-5.388793945E-1,2.516117706E0,9.765093384E0,1.009842998E1
4.210088875E0,-2.902464294E-1,2.501897278E0,1.036818924E1,1.066972732E1
4.220126875E0,-1.062789917E-1,2.399360504E0,1.086814957E1,1.113035943E1
4.230163875E0,-4.191284180E-2,2.276765442E0,1.111034592E1,1.134130521E1
4.240201875E0,1.459465027E-1,2.215542755E0,1.108998825E1,1.131007381E1
4.250238875E0,8.321195984E-1,2.532733154E0,1.084030746E1,1.116330713E1
4.260276875E0,2.129172363E0,3.423830109E0,1.044887146E1,1.119977242E1
4.270314875E0,3.460653534E0,4.297563171E0,1.036669235E1,1.174365711E1
4.280351874E0,4.219575348E0,4.694687347E0,1.050635193E1,1.225676696E1
4.290389875E0,4.368365936E0,4.679119720E0,1.066427353E1,1.243798666E1
4.300426874E0,3.729943542E0,4.269571381E0,1.084524719E1,1.223769199E1
4.310464875E0,2.727328491E0,3.469634857E0,1.122111557E1,1.205778261E1
4.320501875E0,1.487007751E0,2.432142334E0,1.196491882E1,1.229982889E1
4.330539875E0,1.249900818E-1,1.280137939E0,1.280048126E1,1.286494058E1
4.340576875E0,-1.030756531E0,1.522334290E-1,1.356718689E1,1.360713762E1
4.350614875E0,-1.763931885E0,-6.993457031E-1,1.402224060E1,1.415004493E1
4.360651875E0,-1.857038269E0,-1.191971283E0,1.401400772E1,1.418667682E1
4.370689875E0,-1.395547943E0,-1.294358368E0,1.364098343E1,1.377313859E1
4.380726875E0,-7.696994019E-1,-1.010698242E0,1.307141785E1,1.313300851E1
4.390764874E0,-2.859054565E-1,-5.385800171E-1,1.249571503E1,1.251058370E1
4.400802875E0,8.681945801E-2,-3.068618774E-2,1.184262314E1,1.184298113E1
4.410839874E0,3.550616455E-1,4.026626587E-1,1.108055786E1,1.109355527E1
4.420877875E0,5.662724304E-1,7.677534485E-1,1.025547363E1,1.029974996E1
4.430914875E0,7.298822021E-1,1.096320190E0,9.596543884E0,9.686500943E0
4.440952875E0,7.668553162E-1,1.445993042E0,9.174721069E0,9.319574543E0
4.450989875E0,8.803193665E-1,1.764231262E0,8.995094604E0,9.208648168E0
4.461027875E0,1.083297272E0,1.967658234E0,8.895551605E0,9.174750692E0
4.471064875E0,1.281185760E0,1.985022125E0,8.831185455E0,9.141749632E0
4.481102875E0,1.350641327E0,1.813628540E0,8.767418060E0,9.054341496E0
4.491139875E0,1.289568329E0,1.518292694E0,8.680299225E0,8.905941489E0
4.501177874E0,1.175655212E0,1.207389221E0,8.636290741E0,8.799174488E0
4.511215875E0,9.641450500E-1,9.648934937E-1,8.644822998E0,8.751774666E0
4.521252875E0,6.747967529E-1,8.515791321E-1,8.740923157E0,8.808193646E0
4.531290875E0,4.189787292E-1,8.235873413E-1,8.813073120E0,8.861382347E0
4.541327875E0,2.011816406E-1,8.846603394E-1,8.842112732E0,8.888535061E0
4.551365875E0,4.700225830E-2,8.789721680E-1,8.768016815E0,8.812089432E0
4.561402875E0,-1.097218323E-1,8.879534912E-1,8.615933075E0,8.662263159E0
4.571440875E0,-3.662882996E-1,9.280700684E-1,8.404722290E0,8.463736642E0
4.581477875E0,-7.673043823E-1,1.003513184E0,8.187673645E0,8.284551553E0
4.591515874E0,-1.138981476E0,1.115330658E0,7.968080292E0,8.125979622E0
4.601552875E0,-1.449585571E0,1.260977783E0,7.784262543E0,8.017861724E0
4.611590874E0,-1.692829742E0,1.350641327E0,7.558531952E0,7.862652847E0
4.621627875E0,-1.900148621E0,1.438807983E0,7.467970276E0,7.839088801E0
4.631665875E0,-2.003433838E0,1.601819000E0,7.624694366E0,8.044596661E0
4.641703875E0,-1.963017883E0,1.776206360E0,7.840246124E0,8.275131874E0
4.651740875E0,-1.786385193E0,1.879641266E0,7.999365234E0,8.409165684E0
4.661778875E0,-1.548380127E0,1.935475159E0,8.114625549E0,8.484732931E0
4.671815875E0,-1.253792725E0,1.990560608E0,8.222401428E0,8.552322081E0
4.681853875E0,-1.000220032E0,2.069895630E0,8.356971588E0,8.667403426E0
4.691890875E0,-7.647596741E-1,2.189496918E0,8.662486267E0,8.967576174E0
4.701928874E0,-5.706134033E-1,2.285896454E0,8.969797211E0,9.274059750E0
4.711965875E0,-5.224136353E-1,2.292183380E0,9.291777649E0,9.584578892E0
4.722003874E0,-5.520520020E-1,2.243833923E0,9.639504547E0,9.912598045E0
4.732040875E0,-7.210505676E-1,2.144440613E0,9.899813232E0,1.015504020E1
4.742078875E0,-9.653425598E-1,1.990560608E0,9.987530823E0,1.022961337E1
4.752115875E0,-1.292562103E0,1.796414337E0,9.918674011E0,1.016257425E1
4.762153875E0,-1.587598572E0,1.632505188E0,9.804760895E0,1.006572792E1
4.772191875E0,-1.847907257E0,1.540895691E0,9.803114319E0,1.009406613E1
4.782228875E0,-2.070344696E0,1.466350708E0,9.707912292E0,1.003394602E1
4.792266875E0,-2.256856842E0,1.443298645E0,9.489965515E0,9.860829542E0
4.802303875E0,-2.351909180E0,1.481918335E0,9.334738312E0,9.739861297E0
4.812341874E0,-2.383343811E0,1.531614990E0,9.280700684E0,9.703482745E0
4.822378875E0,-2.326761475E0,1.593286743E0,9.485025787E0,9.895357285E0
4.832416874E0,-2.172133026E0,1.708397369E0,9.725874939E0,1.011085688E1
4.842453875E0,-1.997296600E0,1.701511688E0,9.695188751E0,1.004395443E1
4.852491875E0,-1.845362549E0,1.587448883E0,9.394763489E0,9.704995513E0
4.862528875E0,-1.955084381E0,1.423090668E0,9.089248810E0,9.405423218E0
4.872566875E0,-2.272274780E0,1.124012604E0,8.830886078E0,9.187556037E0
4.882603874E0,-2.546055450E0,7.381150818E-1,8.782087555E0,9.173454859E0
4.892641875E0,-2.330204315E0,8.819659424E-1,9.007818146E0,9.346042147E0
4.902678874E0,-1.788031769E0,1.738634491E0,9.568103027E0,9.887795661E0
4.912716875E0,-1.351838837E0,2.570903778E0,1.004111938E1,1.045280312E1
4.922754874E0,-8.813671875E-1,3.361409912E0,1.015652939E1,1.073456911E1
4.932791875E0,-5.093907166E-1,3.936364288E0,9.941875763E0,1.070492113E1
4.942829874E0,-1.832189941E-1,4.012406158E0,9.513017578E0,1.032620336E1
4.952866875E0,2.011816406E-1,3.823349304E0,9.100774841E0,9.873326525E0
4.962904875E0,5.903723145E-1,3.707789612E0,8.996591492E0,9.748584602E0
4.972941875E0,8.930429077E-1,3.757486267E0,9.136550446E0,9.919313622E0
4.982979875E0,1.047821045E0,3.961961060E0,9.340426483E0,1.019993291E1
4.993016874E0,1.093326416E0,4.188140717E0,9.488318939E0,1.042900195E1
5.003054875E0,1.113085327E0,4.287384338E0,9.645492096E0,1.061395973E1
5.013091874E0,1.229842529E0,4.198319550E0,9.830207977E0,1.075971136E1
5.023129875E0,1.369801483E0,3.974534912E0,1.000803818E1,1.085514219E1
5.033166875E0,1.481020203E0,3.661535797E0,1.018946091E1,1.092819193E1
5.043204875E0,1.565594330E0,3.317850494E0,1.041923309E1,1.104624985E1
5.053241875E0,1.630559235E0,3.048859863E0,1.061248123E1,1.116149756E1
5.063279875E0,1.616638184E0,2.794838104E0,1.072714279E1,1.120251005E1
5.073316875E0,1.482217712E0,2.534379730E0,1.072369995E1,1.111835377E1
5.083354374E0,1.251547394E0,2.261796570E0,1.062715073E1,1.093702095E1
5.093392375E0,9.747729492E-1,1.946252747E0,1.041938278E1,1.064432335E1
5.103429375E0,7.051835632E-1,1.641785889E0,1.013991394E1,1.029614488E1
5.113467375E0,3.902384949E-1,1.398092651E0,9.840835876E0,9.947311189E0
5.123504375E0,6.960525513E-2,1.195863190E0,9.565408630E0,9.640123232E0
5.133542375E0,-2.787203979E-1,9.701325989E-1,9.283993835E0,9.338703543E0
5.143579375E0,-6.186634827E-1,7.171586609E-1,9.054521027E0,9.103922895E0
5.153617375E0,-9.566606140E-1,4.541555786E-1,8.914562073E0,8.977241991E0
5.163654375E0,-1.247655487E0,3.402424622E-1,8.750802612E0,8.845843968E0
5.173692374E0,-1.501976624E0,2.788700867E-1,8.519084473E0,8.654969818E0
5.183729375E0,-1.670077057E0,4.514611816E-1,8.396339722E0,8.572718081E0
5.193767374E0,-1.790426788E0,7.952961731E-1,8.285869446E0,8.514326548E0
5.203804375E0,-1.808539124E0,1.207089844E0,8.021070099E0,8.310562266E0
5.213842375E0,-1.710193634E0,1.582808533E0,7.662565613E0,8.009054681E0
5.223879375E0,-1.438358917E0,1.830543365E0,7.317832489E0,7.679221167E0
5.233917375E0,-1.030457153E0,1.869312744E0,7.117548981E0,7.430725104E0
5.243955375E0,-6.598278809E-1,1.677411804E0,7.592960358E0,7.803981688E0
5.253992375E0,-3.755690002E-1,1.246757355E0,8.777596893E0,8.873649937E0
5.264030375E0,-6.810836792E-2,5.095404053E-1,1.029424301E1,1.030707084E1
5.274067375E0,8.352630615E-2,-4.234693909E-1,1.169248535E1,1.170044942E1
5.284105374E0,-1.541793823E-2,-1.426533508E0,1.286888901E1,1.294772335E1
5.294142375E0,-2.989283752E-1,-2.381846924E0,1.376627289E1,1.397400523E1
5.304180374E0,-8.084687805E-1,-3.245700531E0,1.436921906E1,1.475339452E1
5.314217375E0,-1.487007751E0,-3.901486816E0,1.461336136E1,1.519812889E1
5.324255375E0,-2.154020691E0,-4.353397064E0,1.426937668E1,1.507338654E1
5.334292375E0,-2.780168610E0,-4.563410339E0,1.362885864E1,1.463898355E1
5.344330375E0,-3.296445007E0,-4.527035980E0,1.265618134E1,1.383978072E1
5.354367374E0,-3.688180389E0,-4.285588074E0,1.143951141E1,1.276053922E1
5.364405375E0,-3.959266663E0,-3.906276855E0,1.020203476E1,1.161965166E1
5.374442374E0,-4.159550171E0,-3.443289642E0,9.182804260E0,1.065279284E1
5.384480375E0,-4.399950256E0,-3.052003326E0,8.365803223E0,9.932821861E0
5.394518374E0,-4.735103302E0,-2.804867249E0,7.818391571E0,9.561157373E0
5.404555375E0,-5.218298492E0,-2.762804718E0,7.342381439E0,9.422011158E0
5.414593374E0,-5.859415283E0,-2.907703400E0,6.936575317E0,9.534336036E0
5.424630375E0,-6.543043671E0,-3.167263641E0,6.718778229E0,9.898735290E0
5.434668375E0,-7.165898438E0,-3.441792755E0,6.730753326E0,1.041628908E1
5.444705375E0,-7.633376312E0,-3.551963654E0,6.894961853E0,1.088234252E1
5.454743375E0,-7.761659546E0,-3.527414703E0,7.136260071E0,1.111810331E1
5.464780374E0,-7.507488098E0,-3.234473877E0,7.432943115E0,1.104865793E1
5.474818375E0,-6.823560333E0,-2.723885651E0,7.798033905E0,1.071400305E1
5.484855374E0,-5.735772400E0,-2.124382324E0,8.336613922E0,1.033978805E1
5.494893375E0,-4.473297729E0,-1.519190826E0,9.176068268E0,1.032078302E1
5.504930375E0,-3.225043488E0,-1.018332367E0,1.042611877E1,1.096092419E1
5.514968375E0,-2.042652283E0,-7.376660156E-1,1.184217407E1,1.203967052E1
5.525005375E0,-1.186732178E0,-5.704637146E-1,1.288625290E1,1.295334999E1
5.535043375E0,-7.655081177E-1,-4.323010254E-1,1.353560257E1,1.356412267E1
5.545080375E0,-8.298742676E-1,-2.646496582E-1,1.387060593E1,1.389792932E1
5.555118375E0,-1.241817627E0,-1.932481384E-1,1.370490051E1,1.376240364E1
5.565155375E0,-1.719474335E0,-1.971400452E-1,1.299432816E1,1.310908160E1
5.575193374E0,-2.037712555E0,-1.437011719E-1,1.203467377E1,1.220681347E1
5.585230375E0,-2.123484192E0,3.861968994E-2,1.115345627E1,1.135386557E1
5.595268374E0,-2.054777069E0,3.207829285E-1,1.042252625E1,1.062798494E1
5.605306375E0,-1.958676910E0,6.529421997E-1,9.860894165E0,1.007471997E1
5.615343375E0,-1.898352356E0,1.064735870E0,9.470955048E0,9.717838940E0
5.625381375E0,-1.848955078E0,1.508712616E0,9.266330566E0,9.568684905E0
5.635418375E0,-1.686692505E0,1.971849518E0,9.337133331E0,9.690984520E0
5.645456375E0,-1.481768646E0,2.300416260E0,9.535021820E0,9.919888830E0
5.655493375E0,-1.240171051E0,2.527643738E0,9.662706299E0,1.006453676E1
5.665531375E0,-1.047821045E0,2.709066467E0,9.528285828E0,9.961184713E0
5.675568375E0,-9.424401855E-1,2.810705109E0,9.363179169E0,9.821271855E0
5.685606374E0,-8.773255920E-1,2.890638885E0,9.410929871E0,9.883880533E0
5.695643375E0,-7.837701416E-1,2.931054840E0,9.674681396E0,1.013927208E1
5.705681374E0,-5.884263611E-1,2.998414764E0,1.017239639E1,1.062141163E1
5.715718375E0,-2.933898926E-1,3.085683289E0,1.090227859E1,1.133433710E1
5.725756375E0,5.792953491E-2,3.154839478E0,1.159369080E1,1.201540820E1
5.735793374E0,3.302133179E-1,3.182232513E0,1.198991684E1,1.240942184E1
5.745831375E0,5.183720398E-1,3.131338348E0,1.198348022E1,1.239668455E1
5.755868374E0,5.334906006E-1,3.032543793E0,1.168544998E1,1.208431526E1
5.765906375E0,5.170248413E-1,2.859503632E0,1.135433853E1,1.172028495E1
5.775943375E0,5.219645691E-1,2.603086853E0,1.108923981E1,1.140262021E1
5.785981375E0,4.092489624E-1,2.291584625E0,1.094538895E1,1.119019142E1
5.796019374E0,3.700305176E-1,1.973645782E0,1.096140564E1,1.114381505E1
5.806056375E0,4.305047607E-1,1.683848419E0,1.128473328E1,1.141778809E1
5.816094375E0,8.408015442E-1,1.386865997E0,1.175819870E1,1.186952321E1
5.826131375E0,1.423390045E0,1.121168518E0,1.213885712E1,1.227334144E1
5.836169375E0,1.972298584E0,9.181906128E-1,1.218391342E1,1.237662240E1
5.846206374E0,2.313738556E0,8.857081604E-1,1.199605408E1,1.224921134E1
5.856244375E0,2.515369263E0,9.202862549E-1,1.147693359E1,1.178533046E1
5.866281374E0,2.594105530E0,9.285191345E-1,1.071382050E1,1.106243558E1
5.876319375E0,2.460433502E0,9.050180054E-1,9.877210236E0,1.021920117E1
5.886356375E0,2.163301392E0,8.948391724E-1,9.089099121E0,9.385751589E0
5.896394375E0,1.821112976E0,9.053173828E-1,8.546028442E0,8.784682930E0
5.906431375E0,1.492995300E0,8.662486267E-1,8.271649017E0,8.449828348E0
5.916469375E0,1.165775757E0,7.159611511E-1,8.115823059E0,8.230323044E0
5.926506375E0,9.006770325E-1,6.153703308E-1,8.183632050E0,8.256011948E0
5.936544375E0,6.420149231E-1,5.162763977E-1,8.363258514E0,8.403738303E0
5.946581375E0,4.019142151E-1,4.173321533E-1,8.534352722E0,8.553997752E0
5.956619374E0,2.106120300E-1,3.471281433E-1,8.638386383E0,8.647923142E0
5.966656375E0,1.466949463E-2,2.897973633E-1,8.765771484E0,8.770572810E0
5.976694374E0,-1.525328064E-1,2.526745605E-1,8.846304016E0,8.851226211E0
5.986731375E0,-2.537223816E-1,2.493814087E-1,8.862470398E0,8.869608091E0
5.996769375E0,-3.149450684E-1,2.878514099E-1,8.969048767E0,8.979191757E0
6.006807375E0,-4.111949158E-1,3.640429688E-1,9.143735504E0,9.160213290E0
6.016844375E0,-5.200186157E-1,4.001179504E-1,9.225764923E0,9.249067637E0
6.026882375E0,-6.900650024E-1,4.337979126E-1,9.241931305E0,9.277804944E0
6.036919375E0,-8.788224792E-1,5.233117676E-1,9.138346710E0,9.195409983E0
6.046957375E0,-1.075513458E0,5.761518860E-1,9.025631104E0,9.107727324E0
6.056994375E0,-1.283131714E0,6.282435608E-1,8.843609619E0,8.958267023E0
6.067032374E0,-1.449435883E0,6.923103333E-1,8.670719147E0,8.818249741E0
6.077069459E0,-1.565145264E0,7.973918152E-1,8.622669067E0,8.799769045E0
6.087107458E0,-1.666484528E0,9.385482788E-1,8.695417786E0,8.903276589E0
6.097144458E0,-1.708547058E0,1.083896027E0,8.854387207E0,9.082628279E0
6.107182458E0,-1.736389160E0,1.218915253E0,9.146429901E0,9.389248194E0
6.117219458E0,-1.814227295E0,1.311273193E0,9.513616333E0,9.773420783E0
6.127257458E0,-1.863325195E0,1.254391479E0,9.740245056E0,9.995891782E0
6.137294458E0,-1.915716248E0,1.206491089E0,9.726473694E0,9.986484867E0
6.147332458E0,-2.010918274E0,1.278491364E0,9.559271393E0,9.851801969E0
6.157369458E0,-2.120640106E0,1.515149231E0,9.368268585E0,9.724055118E0
6.167407458E0,-2.165097656E0,1.729952545E0,9.176367645E0,9.585724116E0
6.177444458E0,-2.217788086E0,1.945653992E0,8.966653748E0,9.439546222E0
6.187482459E0,-2.215842133E0,2.190095673E0,8.829838257E0,9.363360457E0
6.197519458E0,-2.160606995E0,2.501747589E0,8.929081879E0,9.521316442E0
6.207557458E0,-2.067500610E0,2.762954407E0,9.048234100E0,9.683956638E0
6.217595458E0,-1.926194458E0,2.987337799E0,9.069340210E0,9.741013503E0
6.227632458E0,-1.817071381E0,3.214714966E0,9.196425934E0,9.910115573E0
6.237670458E0,-1.699116669E0,3.333268433E0,9.595346375E0,1.029894888E1
6.247707458E0,-1.564247131E0,3.253634033E0,1.018721558E1,1.080797690E1
6.257745458E0,-1.434467010E0,3.065924377E0,1.079360458E1,1.131191795E1
6.267782458E0,-1.443448334E0,2.858904877E0,1.142065063E1,1.186120319E1
6.277820458E0,-1.589843903E0,2.603984985E0,1.194111832E1,1.232471696E1
6.287857458E0,-1.809736633E0,2.279609528E0,1.229992218E1,1.263961439E1
6.297895459E0,-2.064057770E0,1.901196442E0,1.246158600E1,1.277364505E1
6.307932458E0,-2.313588867E0,1.515149231E0,1.242970230E1,1.273365108E1
6.317970458E0,-2.658172302E0,1.216819611E0,1.219708603E1,1.254254510E1
6.328007458E0,-3.050356750E0,9.512718201E-1,1.189770859E1,1.231929641E1
6.338045458E0,-3.202290802E0,5.667214966E-1,1.136825958E1,1.182426173E1
6.348082458E0,-3.413351898E0,3.222798157E-1,1.064436493E1,1.118290393E1
6.358120458E0,-3.700454865E0,3.397933960E-1,9.950707397E0,1.062193031E1
6.368157458E0,-3.794609070E0,4.809498596E-1,9.289532318E0,1.004618243E1
6.378195458E0,-3.702550507E0,7.107220459E-1,8.787626038E0,9.562237053E0
6.388232458E0,-3.346441040E0,1.101858673E0,8.649014282E0,9.339068916E0
6.398270458E0,-2.807861023E0,1.563049622E0,8.799451447E0,9.367900160E0
6.408307458E0,-2.287393341E0,1.970202942E0,9.042695618E0,9.533321140E0
6.418345458E0,-1.759590912E0,2.152523804E0,9.225764923E0,9.635572496E0
6.428382458E0,-1.375040588E0,2.179916840E0,9.285341034E0,9.636406600E0
6.438420458E0,-1.244512024E0,2.093696136E0,9.277257843E0,9.591657144E0
6.448457458E0,-1.306034088E0,1.912572784E0,9.260492706E0,9.545699810E0
6.458495458E0,-1.517693939E0,1.704954529E0,9.176367645E0,9.456002750E0
6.468533458E0,-1.864822083E0,1.544188843E0,8.996441803E0,9.316546876E0
6.478570458E0,-2.247276764E0,1.437610474E0,8.848848724E0,9.242245424E0
6.488608458E0,-2.534679108E0,1.349743195E0,8.790919189E0,9.248062774E0
6.498645458E0,-2.743345184E0,1.303339691E0,8.721613312E0,9.235322188E0
6.508683458E0,-2.847378845E0,1.296304321E0,8.666378174E0,9.213798448E0
6.518720458E0,-2.815644836E0,1.345402222E0,8.631051636E0,9.177854614E0
6.528758458E0,-2.779569855E0,1.412462769E0,8.594377899E0,9.142449952E0
6.538795458E0,-2.699935455E0,1.550775146E0,8.697962494E0,9.238458019E0
6.548833458E0,-2.563868408E0,1.755249939E0,8.841963043E0,9.372013339E0
6.558870458E0,-2.425256653E0,1.889820099E0,8.863218842E0,9.381361206E0
6.568908458E0,-2.304008789E0,1.951042786E0,8.702902222E0,9.211706223E0
6.578945458E0,-2.310146027E0,2.033670959E0,8.527616730E0,9.066026656E0
6.588983458E0,-2.391427002E0,2.145937500E0,8.323141937E0,8.921808257E0
6.599020458E0,-2.479743347E0,2.268233185E0,8.064779205E0,8.736971585E0
6.609058458E0,-2.597997437E0,2.364333344E0,7.803123322E0,8.557359196E0
6.619095458E0,-2.707120514E0,2.512225800E0,7.600444794E0,8.450239109E0
6.629133458E0,-2.749033356E0,2.694097595E0,7.473508759E0,8.406466523E0
6.639170459E0,-2.715802460E0,2.870730286E0,7.402556305E0,8.391335723E0
6.649208458E0,-2.620001678E0,3.045267334E0,7.518115997E0,8.524091159E0
6.659245458E0,-2.379751282E0,3.178490295E0,7.805518341E0,8.757404484E0
6.669283458E0,-2.070494385E0,3.286116486E0,8.106093292E0,8.988562567E0
6.679320458E0,-1.829345856E0,3.363206177E0,8.345146179E0,9.181455593E0
6.689358458E0,-1.629361725E0,3.431015167E0,8.581205292E0,9.384229801E0
6.699396458E0,-1.532513123E0,3.446732483E0,8.740025024E0,9.519275115E0
6.709433458E0,-1.521885223E0,3.387605438E0,8.843310242E0,9.591461894E0
6.719471458E0,-1.542392578E0,3.298091583E0,8.947044525E0,9.659502507E0
6.729508458E0,-1.636846161E0,3.198698273E0,9.028924255E0,9.717633930E0
6.739546458E0,-1.726509705E0,3.109783173E0,9.022487640E0,9.698292136E0
6.749583459E0,-1.841320953E0,3.028651886E0,9.016799469E0,9.688439904E0
6.759621458E0,-1.931583252E0,2.998115387E0,9.053473206E0,9.730626229E0
6.769658458E0,-1.927242279E0,2.987337799E0,9.176217957E0,9.840804129E0
6.779696458E0,-1.836081848E0,2.982996826E0,9.327852631E0,9.963849724E0
6.789733458E0,-1.673968964E0,2.984493713E0,9.453740845E0,1.005398383E1
6.799771458E0,-1.543440399E0,3.037633209E0,9.530231781E0,1.012100497E1
6.809808458E0,-1.448088684E0,3.066074066E0,9.504934387E0,1.009165738E1
6.819846458E0,-1.372196503E0,3.073857880E0,9.417815552E0,1.000133867E1
6.829883458E0,-1.317560120E0,3.110082550E0,9.247469788E0,9.845012728E0
6.839921458E0,-1.282982025E0,3.169059906E0,9.101523285E0,9.722484748E0
6.849958458E0,-1.305585022E0,3.226839752E0,9.029822388E0,9.677537878E0
6.859996459E0,-1.285676422E0,3.252586212E0,9.081015930E0,9.731245103E0
6.870033458E0,-1.194965057E0,3.256178741E0,9.239835663E0,9.869407508E0
6.880071458E0,-1.106648712E0,3.203937378E0,9.377848663E0,9.971656414E0
6.890108458E0,-1.117426300E0,3.183879089E0,9.513316956E0,1.009400451E1
6.900146458E0,-1.137035522E0,3.136727142E0,9.590256958E0,1.015406005E1
6.910183458E0,-1.119072876E0,3.106639709E0,9.602980499E0,1.015483968E1
6.920221458E0,-1.092428284E0,3.082689514E0,9.631720734E0,1.017184440E1
6.930258458E0,-1.046623535E0,3.075354767E0,9.602830811E0,1.013743495E1
6.940296458E0,-9.801617432E-1,3.085982666E0,9.581575012E0,1.011388085E1
6.950333458E0,-8.951385498E-1,3.149750061E0,9.603130188E0,1.014604888E1
6.960371458E0,-7.623646545E-1,3.266058197E0,9.676477661E0,1.024121848E1
6.970409459E0,-5.941145325E-1,3.349434814E0,9.746981049E0,1.032353259E1
6.980446458E0,-4.025129700E-1,3.456911316E0,9.971514130E0,1.056140836E1
6.990484458E0,-1.550775146E-1,3.567531281E0,1.035546570E1,1.095385769E1
7.000521458E0,1.035845947E-1,3.707041168E0,1.084015778E1,1.145695878E1
7.010559458E0,2.999761963E-1,3.936513977E0,1.125479553E1,1.192713505E1
7.020596458E0,4.736151123E-1,4.081712036E0,1.144654678E1,1.216174813E1
7.030634458E0,6.683601379E-1,3.992647247E0,1.149205215E1,1.218421930E1
7.040671458E0,7.896080017E-1,3.755540314E0,1.154055130E1,1.216190315E1
7.050709458E0,9.126521301E-1,3.396736450E0,1.167946243E1,1.219756513E1
7.060746458E0,1.008003845E0,2.996319122E0,1.194530960E1,1.235655379E1
7.070784458E0,1.055604858E0,2.589165802E0,1.227237946E1,1.258687327E1
7.080821958E0,1.096170502E0,2.189945984E0,1.251547394E1,1.275282483E1
7.090859958E0,1.148262177E0,1.837279358E0,1.253972351E1,1.272551638E1
7.100896958E0,1.178648987E0,1.581311646E0,1.235515732E1,1.251158153E1
7.110934958E0,1.205892334E0,1.310524750E0,1.198662369E1,1.211820114E1
7.120971958E0,1.208287354E0,1.039139099E0,1.145328278E1,1.156362637E1
7.131009958E0,1.246757355E0,7.467970276E-1,1.085797073E1,1.095479978E1
7.141046958E0,1.245559845E0,4.918771362E-1,1.022329056E1,1.031062715E1
7.151084958E0,1.313069458E0,3.722758484E-1,9.645941162E0,9.742018354E0
7.161121958E0,1.487157440E0,4.646337891E-1,9.257349243E0,9.387546901E0
7.171159958E0,1.730850677E0,6.635700989E-1,8.984466705E0,9.173702160E0
7.181196958E0,1.989213409E0,8.969348145E-1,8.732839966E0,9.001330786E0
7.191234958E0,2.171234894E0,1.108594666E0,8.474626923E0,8.818307353E0
7.201271958E0,2.227068787E0,1.272653503E0,8.193511505E0,8.585634112E0
7.211309958E0,2.161505127E0,1.394350433E0,7.980654144E0,8.384936381E0
7.221347958E0,2.102827148E0,1.498234406E0,7.830516357E0,8.245215265E0
7.231384958E0,2.024090881E0,1.577270050E0,7.796087952E0,8.207539952E0
7.241421958E0,1.980381775E0,1.634002075E0,7.913743286E0,8.319808144E0
7.251459958E0,2.065554657E0,1.638343048E0,8.170160065E0,8.584998513E0
7.261497958E0,2.185455322E0,1.606309662E0,8.446934509E0,8.871704926E0
7.271534958E0,2.304607544E0,1.593885498E0,8.650062103E0,9.092593761E0
7.281572958E0,2.387535095E0,1.600920868E0,8.795260162E0,9.253100712E0
7.291609958E0,2.400408325E0,1.648821259E0,8.833281097E0,9.300936868E0
7.301647958E0,2.362686768E0,1.718725891E0,8.797056427E0,9.269547412E0
7.311684958E0,2.264640656E0,1.796414337E0,8.672066345E0,9.141139779E0
7.321722958E0,2.148332520E0,1.816173248E0,8.483308868E0,8.937580614E0
7.331759959E0,2.045196991E0,1.807191925E0,8.298742676E0,8.736011870E0
7.341797958E0,1.900897064E0,1.731898499E0,8.148305511E0,8.544458132E0
7.351834958E0,1.731299744E0,1.672322388E0,8.063282318E0,8.414902418E0
7.361872958E0,1.564995575E0,1.632355499E0,8.023016052E0,8.335621285E0
7.371909958E0,1.373094635E0,1.591191101E0,8.023165741E0,8.293881269E0
7.381947958E0,1.119072876E0,1.590891724E0,8.047864380E0,8.279576176E0
7.391984958E0,8.683442688E-1,1.595232697E0,8.061336365E0,8.263409291E0
7.402022958E0,5.987548828E-1,1.643133087E0,8.061486053E0,8.248996978E0
7.412059958E0,3.954776001E-1,1.702858887E0,8.006550293E0,8.195180200E0
7.422097958E0,2.703378296E-1,1.807042236E0,8.016429749E0,8.222021047E0
7.432134958E0,2.013313293E-1,1.918710022E0,8.076005859E0,8.303243528E0
7.442172959E0,1.454974365E-1,2.044149170E0,8.145461426E0,8.399300993E0
7.452209958E0,1.555265808E-1,2.145189056E0,8.252937927E0,8.528599477E0
7.462247958E0,1.942959595E-1,2.222578125E0,8.322692871E0,8.616543452E0
7.472284958E0,2.261796570E-1,2.278412018E0,8.377928009E0,8.685159543E0
7.482322958E0,2.809657288E-1,2.329605560E0,8.446335754E0,8.766218768E0
7.492359958E0,3.489244080E-1,2.339185638E0,8.535699921E0,8.857297039E0
7.502397958E0,4.351451111E-1,2.347268829E0,8.697962494E0,9.019621598E0
7.512435958E0,5.471122742E-1,2.326462097E0,8.890462189E0,9.206089053E0
7.522472958E0,6.378236389E-1,2.303859100E0,9.072483673E0,9.382139721E0
7.532510958E0,6.418652344E-1,2.229164429E0,9.247918854E0,9.534420179E0
7.542547958E0,6.227050781E-1,2.180515594E0,9.395960999E0,9.665738097E0
7.552585959E0,5.596861267E-1,2.155218201E0,9.574988708E0,9.830494536E0
7.562622958E0,5.153782654E-1,2.124681702E0,9.762548676E0,1.000436124E1
7.572660958E0,4.584965515E-1,2.130369873E0,9.944420471E0,1.018038277E1
7.582697958E0,4.323010254E-1,2.117646332E0,1.012284943E1,1.035100916E1
7.592735958E0,4.614903259E-1,2.113005981E0,1.031115784E1,1.053554667E1
7.602772958E0,4.574487305E-1,2.136058044E0,1.045500870E1,1.068078696E1
7.612810958E0,4.185296631E-1,2.158960419E0,1.058194473E1,1.080804476E1
7.622847958E0,4.421804810E-1,2.194885712E0,1.062026505E1,1.085371257E1
7.632885958E0,4.123924255E-1,2.215243378E0,1.057655594E1,1.081392187E1
7.642922958E0,3.629951477E-1,2.244582367E0,1.043045975E1,1.067541128E1
7.652960958E0,2.742297363E-1,2.294578400E0,1.018856277E1,1.044734911E1
7.662997958E0,2.215393066E-1,2.356399841E0,9.896370392E0,1.017545315E1
7.673035958E0,1.872605896E-1,2.449356537E0,9.610315247E0,9.919303056E0
7.683072958E0,1.827699280E-1,2.565514984E0,9.358838196E0,9.705829401E0
7.693110958E0,2.213896179E-1,2.702629852E0,9.205257568E0,9.596352869E0
7.703147958E0,2.932402039E-1,2.839145966E0,9.064550171E0,9.503305185E0
7.713185958E0,3.839515686E-1,2.941682739E0,8.969048767E0,9.446944053E0
7.723222958E0,4.722679138E-1,3.038980408E0,8.906628571E0,9.422657343E0
7.733260958E0,6.162684631E-1,3.115621033E0,8.954828339E0,9.501359472E0
7.743297958E0,7.599696350E-1,3.173999634E0,9.034313049E0,9.605760761E0
7.753335958E0,8.476872253E-1,3.174149323E0,9.107061768E0,9.681547996E0
7.763372958E0,8.074209595E-1,3.141068115E0,9.238787842E0,9.791498266E0
7.773410958E0,5.423222351E-1,3.022514648E0,9.458081818E0,9.944094724E0
7.783447959E0,4.550537109E-2,2.759212189E0,9.750124512E0,1.013312640E1
7.793485958E0,-5.634283447E-1,2.394720154E0,1.015308655E1,1.044688004E1
7.803522958E0,-1.042432251E0,2.060465240E0,1.054706726E1,1.079688889E1
7.813560958E0,-1.428629150E0,1.844913483E0,1.085617447E1,1.110410785E1
7.823598959E0,-1.596879272E0,1.781445465E0,1.110181366E1,1.135666491E1
7.833635958E0,-1.478924561E0,1.766326904E0,1.119581818E1,1.143037503E1
7.843673958E0,-1.203946381E0,1.906435547E0,1.125090363E1,1.147461615E1
7.853710958E0,-9.910890198E-1,2.192041626E0,1.119237534E1,1.144799413E1
7.863748958E0,-7.280859375E-1,2.391127625E0,1.091769653E1,1.120016509E1
7.873785958E0,-4.824467468E-1,2.528541870E0,1.054287598E1,1.085258092E1
7.883823958E0,-2.990780640E-1,2.684068451E0,1.014305740E1,1.049644152E1
7.893860959E0,-1.501377869E-1,2.779270477E0,9.837542725E0,1.022370445E1
7.903898958E0,-7.873626709E-2,2.695444794E0,9.756710815E0,1.012250107E1
7.913935958E0,-1.071771240E-1,2.563569031E0,9.981094208E0,1.030561084E1
7.923973958E0,-1.278341675E-1,2.330503693E0,1.060335022E1,1.085719231E1
7.934010958E0,-1.603166199E-1,1.921404419E0,1.137215149E1,1.153444086E1
7.944048958E0,-2.406994629E-1,1.525477753E0,1.198138458E1,1.208050475E1
7.954085958E0,-3.990701294E-1,1.146465912E0,1.231713638E1,1.237681258E1
7.964123958E0,-4.996609497E-1,7.289840698E-1,1.232521957E1,1.235686515E1
7.974160958E0,-5.020559692E-1,2.975811768E-1,1.203512283E1,1.204926539E1
7.984198958E0,-5.156776428E-1,3.742218018E-3,1.160027710E1,1.161173399E1
7.994235958E0,-5.803431702E-1,-1.092727661E-1,1.108684479E1,1.110256124E1
8.004273959E0,-6.408174133E-1,-6.331832886E-2,1.049766998E1,1.051740135E1
8.014310958E0,-7.191046143E-1,1.095721436E-1,9.876012726E0,9.902764506E0
8.024348958E0,-6.867718506E-1,3.049159241E-1,9.286239166E0,9.316590962E0
8.034385958E0,-6.541397095E-1,5.581892395E-1,8.737180939E0,8.779396605E0
8.044423958E0,-6.200106812E-1,7.791297913E-1,8.170010376E0,8.230463293E0
8.054460958E0,-6.848258972E-1,1.028361511E0,7.685018921E0,7.783702828E0
8.064498958E0,-8.628057861E-1,1.316063232E0,7.402855682E0,7.568271171E0
8.074535958E0,-1.025816803E0,1.507964172E0,7.336992645E0,7.560272292E0
8.084574333E0,-1.144070892E0,1.548080750E0,7.536677399E0,7.778621885E0
8.094611333E0,-1.145268402E0,1.435963898E0,7.962242432E0,8.171348516E0
8.104649333E0,-1.017434235E0,1.269510040E0,8.492439880E0,8.646870144E0
8.114686333E0,-8.903485107E-1,1.206940155E0,8.947044525E0,9.071881323E0
8.124724333E0,-8.336164856E-1,1.162033539E0,9.303603058E0,9.412877788E0
8.134762333E0,-7.610174561E-1,1.130000153E0,9.508826294E0,9.605926577E0
8.144799333E0,-6.861730957E-1,1.136586456E0,9.647737427E0,9.738660059E0
8.154837333E0,-6.074368286E-1,1.165326691E0,9.823771362E0,9.911278907E0
8.164874333E0,-5.321434021E-1,1.219064941E0,9.943222961E0,1.003179838E1
8.174912333E0,-5.128335571E-1,1.260678406E0,9.972861328E0,1.006530036E1
8.184949333E0,-5.182223511E-1,1.278491364E0,9.973609772E0,1.006856427E1
8.194987333E0,-5.523513794E-1,1.263821869E0,1.001252884E1,1.010708027E1
8.205024333E0,-6.147715759E-1,1.190923462E0,1.012165192E1,1.020999904E1
8.215062333E0,-6.965016174E-1,1.132544861E0,1.032462982E1,1.040988729E1
8.225099333E0,-7.479945374E-1,1.078058167E0,1.048988617E1,1.057163266E1
8.235137333E0,-7.996371460E-1,1.002615051E0,1.058613602E1,1.066353282E1
8.245174333E0,-8.018824768E-1,9.565109253E-1,1.053748718E1,1.061115285E1
8.255212333E0,-7.396119690E-1,9.240284729E-1,1.037312897E1,1.044043385E1
8.265249333E0,-6.417155457E-1,9.196875000E-1,1.006372238E1,1.012601265E1
8.275287333E0,-5.493576050E-1,1.002465363E0,9.654623108E0,9.722061404E0
8.285324333E0,-4.147874451E-1,1.219214630E0,9.204958191E0,9.294610709E0
8.295362333E0,-2.553689575E-1,1.448537750E0,8.807684326E0,8.929657222E0
8.305399333E0,-1.022373962E-1,1.720971222E0,8.441845093E0,8.616086293E0
8.315437333E0,2.380050659E-2,1.953587494E0,8.175548859E0,8.405752179E0
8.325474333E0,1.288819885E-1,2.160606995E0,7.968529358E0,8.257257007E0
8.335512334E0,1.480421448E-1,2.368075562E0,7.773185577E0,8.127245066E0
8.345549333E0,1.538800049E-1,2.505040741E0,7.690258026E0,8.089436116E0
8.355587333E0,8.607101440E-2,2.607876892E0,7.703879700E0,8.133768655E0
8.365624333E0,5.867797852E-2,2.619851990E0,7.786507874E0,8.215641936E0
8.375662333E0,2.395019531E-2,2.553390198E0,7.963439941E0,8.362819549E0
8.385699333E0,-6.017486572E-2,2.472857666E0,8.187673645E0,8.553165833E0
8.395737333E0,-2.161505127E-1,2.414029999E0,8.445287933E0,8.786190879E0
8.405774334E0,-3.302133179E-1,2.351160736E0,8.667276306E0,8.986583122E0
8.415812333E0,-3.882925415E-1,2.347268829E0,8.879983978E0,9.193179945E0
8.425849333E0,-4.375401306E-1,2.329455872E0,9.111402740E0,9.414641041E0
8.435887333E0,-4.388873291E-1,2.277513885E0,9.332193604E0,9.616107791E0
8.445924333E0,-4.120930481E-1,2.235601044E0,9.464817810E0,9.733987307E0
8.455962333E0,-3.365002441E-1,2.257904663E0,9.543703766E0,9.812932663E0
8.465999333E0,-2.683918762E-1,2.317480774E0,9.595196686E0,9.874743074E0
8.476037333E0,-1.977388000E-1,2.390229492E0,9.692943420E0,9.985261630E0
8.486075333E0,-1.038839722E-1,2.437680817E0,9.883946228E0,1.018064206E1
8.496112333E0,-3.577560425E-2,2.458038483E0,1.014784744E1,1.044136202E1
8.506150333E0,-3.622467041E-2,2.453248444E0,1.041519150E1,1.070027822E1
8.516187334E0,-2.874023438E-2,2.406844940E0,1.059541672E1,1.086538467E1
8.526225333E0,-5.822891235E-2,2.344424744E0,1.071726334E1,1.097084552E1
8.536262333E0,-1.350192261E-1,2.289638672E0,1.080917221E1,1.104983617E1
8.546300333E0,-1.793270874E-1,2.227368164E0,1.085707260E1,1.108464490E1
8.556337333E0,-2.336640930E-1,2.147135010E0,1.079180832E1,1.100581276E1
8.566375333E0,-2.510279846E-1,2.118694153E0,1.066217789E1,1.087354207E1
8.576412333E0,-2.436932373E-1,2.098486176E0,1.048659302E1,1.069727366E1
8.586450333E0,-2.492317200E-1,2.127974854E0,1.031849258E1,1.053858067E1
8.596487333E0,-2.218386841E-1,2.183060303E0,1.013078293E1,1.036569956E1
8.606525333E0,-1.968406677E-1,2.234104156E0,9.945767670E0,1.019550206E1
8.616562333E0,-1.883084106E-1,2.282154236E0,9.779762878E0,1.004427449E1
8.626600333E0,-1.803749084E-1,2.318827972E0,9.619296570E0,9.896482444E0
8.636637333E0,-1.586700439E-1,2.347418518E0,9.466464386E0,9.754460408E0
8.646675333E0,-1.591191101E-1,2.346819763E0,9.333540802E0,9.625376138E0
8.656712333E0,-9.714797974E-2,2.312840424E0,9.256301422E0,9.541372258E0
8.666750333E0,-4.041595459E-3,2.219284973E0,9.341623993E0,9.601623871E0
8.676787333E0,1.077758789E-1,2.244732056E0,9.515113220E0,9.776902231E0
8.686825333E0,2.456391907E-1,2.327210541E0,9.593550110E0,9.874839301E0
8.696862333E0,4.367916870E-1,2.255958710E0,9.546098785E0,9.818764622E0
8.706900333E0,5.399272156E-1,2.193089447E0,9.467512207E0,9.733188075E0
8.716937333E0,6.057902527E-1,2.154020691E0,9.657167816E0,9.913005457E0
8.726975333E0,7.586224365E-1,2.032174072E0,1.025203079E1,1.047899684E1
8.737012333E0,9.680369568E-1,1.799408112E0,1.116827545E1,1.135364883E1
8.747050333E0,1.138382721E0,1.485361176E0,1.219543945E1,1.233819097E1
8.757087333E0,1.168170776E0,1.135538635E0,1.314326843E1,1.324385050E1
8.767125333E0,1.158141632E0,7.343728638E-1,1.391596161E1,1.398336809E1
8.777162333E0,9.819580078E-1,2.528242493E-1,1.430934357E1,1.434522481E1
8.787200334E0,6.277944946E-1,-2.091151428E-1,1.421968002E1,1.423506779E1
8.797237333E0,2.671943665E-1,-6.722520447E-1,1.385997803E1,1.387884385E1
8.807275333E0,-2.155517578E-2,-1.138083344E0,1.328801743E1,1.333668270E1
8.817312333E0,-2.841091919E-1,-1.489402771E0,1.262789017E1,1.271859460E1
8.827350333E0,-4.586462402E-1,-1.653910675E0,1.197270264E1,1.209509757E1
8.837387333E0,-5.505551147E-1,-1.634151764E0,1.127215942E1,1.140329518E1
8.847425333E0,-5.110372925E-1,-1.461560669E0,1.058269318E1,1.069535944E1
8.857462334E0,-3.588038635E-1,-1.188528442E0,9.968220978E0,1.004523616E1
8.867500333E0,-6.092330933E-2,-8.743318176E-1,9.420210571E0,9.460895041E0
8.877538333E0,3.245251465E-1,-6.054908752E-1,8.959319000E0,8.985618104E0
8.887575333E0,6.753955078E-1,-3.409909058E-1,8.560099182E0,8.593470306E0
8.897613334E0,1.027613068E0,-1.143621826E-1,8.224946136E0,8.289680710E0
8.907650333E0,1.292113037E0,4.520599365E-2,7.973020020E0,8.077168310E0
8.917688333E0,1.484912109E0,2.080673218E-1,7.801626434E0,7.944408789E0
8.927725333E0,1.616787872E0,3.748205566E-1,7.749834137E0,7.925555036E0
8.937763333E0,1.721270599E0,5.231620789E-1,7.752827911E0,7.958819740E0
8.947800333E0,1.753303986E0,6.243516541E-1,7.804620209E0,8.023464741E0
8.957838333E0,1.797312469E0,7.008425903E-1,7.825576630E0,8.059848760E0
8.967875334E0,1.748963013E0,7.988887024E-1,7.852670288E0,8.084647514E0
8.977913333E0,1.671723633E0,8.918453979E-1,7.862849121E0,8.087919660E0
8.987950333E0,1.530417480E0,9.825567627E-1,7.866741028E0,8.074231224E0
8.997988333E0,1.369951172E0,1.037492523E0,7.942633209E0,8.126412446E0
9.008025333E0,1.241069183E0,1.084345093E0,8.064479828E0,8.231153740E0
9.018063333E0,1.116528168E0,1.088087311E0,8.249195709E0,8.395224773E0
9.028100333E0,9.855505371E-1,1.073268127E0,8.440198517E0,8.565054894E0
9.038138333E0,8.671467590E-1,1.045276337E0,8.598718872E0,8.705315179E0
9.048175333E0,6.867718506E-1,1.021026764E0,8.691076813E0,8.777754120E0
9.058213333E0,5.243595886E-1,1.016386414E0,8.776998138E0,8.851197130E0
9.068250333E0,3.914360046E-1,1.029858398E0,8.815917206E0,8.884493607E0
9.078288333E0,2.767744446E-1,1.050216064E0,8.779692535E0,8.846612849E0
9.088324999E0,2.020797729E-1,1.085392914E0,8.760233002E0,8.829529787E0
9.098363000E0,1.948947144E-1,1.150507507E0,8.788673859E0,8.865801693E0
9.108399999E0,2.294728088E-1,1.226250000E0,8.895850983E0,8.982901065E0
9.118438000E0,3.167413330E-1,1.348845062E0,8.994196472E0,9.100290009E0
9.128475000E0,4.326004028E-1,1.469344482E0,9.117240601E0,9.245009058E0
9.138513000E0,5.866300964E-1,1.557211761E0,9.222471771E0,9.371394182E0
9.148550000E0,6.201603699E-1,1.624122620E0,9.253607025E0,9.415498720E0
9.158588000E0,6.108796692E-1,1.671573944E0,9.279952240E0,9.449065933E0
9.168625000E0,6.153703308E-1,1.736239471E0,9.311686249E0,9.492139324E0
9.178663000E0,6.015989685E-1,1.772913208E0,9.359736328E0,9.545145714E0
9.188700000E0,5.611830139E-1,1.756297760E0,9.383985901E0,9.563404184E0
9.198737999E0,4.941224670E-1,1.747316437E0,9.378896484E0,9.553060819E0
9.208775000E0,4.198768616E-1,1.735790405E0,9.356293488E0,9.525203029E0
9.218812999E0,4.285588074E-1,1.718127136E0,9.284442902E0,9.451798956E0
9.228850000E0,4.769082642E-1,1.729353790E0,9.191186829E0,9.364615387E0
9.238888000E0,4.945715332E-1,1.742526398E0,9.123078461E0,9.301159059E0
9.248924999E0,4.652325439E-1,1.772314453E0,9.125174103E0,9.307327342E0
9.258963000E0,4.532574463E-1,1.830094299E0,9.227411499E0,9.418057678E0
9.268999999E0,4.484674072E-1,1.866169281E0,9.382938080E0,9.577224954E0
9.279038000E0,4.899311829E-1,1.880389709E0,9.524992676E0,9.721182207E0
9.289075000E0,5.749543762E-1,1.899849243E0,9.669142914E0,9.870781345E0
9.299113000E0,6.279441833E-1,1.925745392E0,9.755662994E0,9.963722681E0
9.309150999E0,6.779402161E-1,1.954934692E0,9.779463501E0,9.995963133E0
9.319188000E0,6.876699829E-1,1.989512787E0,9.692194977E0,9.918149757E0
9.329225999E0,6.902146912E-1,2.065554657E0,9.549990692E0,9.795163836E0
9.339263000E0,6.289920044E-1,2.166145477E0,9.404942322E0,9.671647080E0
9.349301000E0,5.867797852E-1,2.243384857E0,9.294621735E0,9.579513522E0
9.359337999E0,5.626799011E-1,2.343825989E0,9.263187103E0,9.571664654E0
9.369376000E0,5.529501343E-1,2.397115173E0,9.314530334E0,9.633918744E0
9.379412999E0,5.345384216E-1,2.412084045E0,9.362730103E0,9.683212057E0
9.389451000E0,5.477110291E-1,2.436333618E0,9.397308197E0,9.723430990E0
9.399488000E0,4.860392761E-1,2.447111206E0,9.480535126E0,9.803322585E0
9.409526000E0,3.595523071E-1,2.438728638E0,9.568851471E0,9.881274903E0
9.419563000E0,2.797682190E-1,2.419119415E0,9.745334473E0,1.004499642E1
9.429601000E0,2.652484131E-1,2.379751282E0,9.930798798E0,1.021539709E1
9.439638000E0,2.653981018E-1,2.343975677E0,1.008692413E1,1.035908763E1
9.449676000E0,3.243754578E-1,2.296374664E0,1.018511993E1,1.044582329E1
9.459713000E0,3.731739807E-1,2.277663574E0,1.023571472E1,1.049270537E1
9.469750999E0,4.661306763E-1,2.241738281E0,1.026535309E1,1.051761106E1
9.479788000E0,5.541476440E-1,2.269281006E0,1.020921982E1,1.047305520E1
9.489825999E0,7.089257812E-1,2.297272797E0,1.020472916E1,1.048410870E1
9.499863000E0,8.443940735E-1,2.315235443E0,1.021146515E1,1.050463407E1
9.509901000E0,1.041983185E0,2.358345795E0,1.025053391E1,1.056981406E1
9.519938000E0,1.211131439E0,2.364782410E0,1.033510803E1,1.067115239E1
9.529976000E0,1.271605682E0,2.239942017E0,1.051204010E1,1.082299904E1
9.540012999E0,1.188528442E0,2.016007690E0,1.077489349E1,1.102611521E1
9.550051000E0,8.893006897E-1,1.748963013E0,1.099882782E1,1.117246350E1
9.560087999E0,3.990701294E-1,1.596130829E0,1.101155136E1,1.113378435E1
9.570126000E0,-9.729766846E-3,1.501228180E0,1.080782501E1,1.091159302E1
9.580163000E0,-3.330574036E-1,1.355880432E0,1.053973251E1,1.063180608E1
9.590201000E0,-5.087919617E-1,1.328637085E0,1.026026367E1,1.035843407E1
9.600238000E0,-6.438111877E-1,1.456171875E0,1.000324814E1,1.012916101E1
9.610276000E0,-5.586383057E-1,1.661993866E0,9.845476227E0,1.000038512E1
9.620313000E0,-3.076103210E-1,1.770069122E0,9.889634399E0,1.005149926E1
9.630351000E0,4.715194702E-2,1.750310211E0,1.015054184E1,1.030045187E1
9.640388000E0,3.926335144E-1,1.690734100E0,1.067085983E1,1.081110505E1
9.650425999E0,5.857319641E-1,1.558558960E0,1.124237137E1,1.136499459E1
9.660463000E0,6.923103333E-1,1.287622375E0,1.168065994E1,1.177179178E1
9.670500999E0,6.102809143E-1,9.738748169E-1,1.191327621E1,1.196858493E1
9.680538000E0,4.381388855E-1,7.102729797E-1,1.199365906E1,1.202265823E1
9.690576000E0,1.296304321E-1,4.802014160E-1,1.188827820E1,1.189867875E1
9.700612999E0,-1.710942078E-1,2.426454163E-1,1.159309204E1,1.159689325E1
9.710651000E0,-4.096980286E-1,5.613327026E-2,1.110780121E1,1.111549599E1
9.720687999E0,-6.210585022E-1,-9.190887451E-2,1.051757858E1,1.053630012E1
9.730726000E0,-7.427554321E-1,-1.227447510E-1,9.849966888E0,9.878694226E0
9.740763000E0,-8.138575745E-1,-3.652404785E-2,9.164093170E0,9.200233790E0
9.750801000E0,-8.310717773E-1,1.254391479E-1,8.556806030E0,8.597984922E0
9.760838000E0,-8.324189758E-1,3.573069763E-1,8.069868622E0,8.120552272E0
9.770876000E0,-7.596702576E-1,6.041436768E-1,7.746391296E0,7.806962700E0
9.780913000E0,-6.529421997E-1,8.493338013E-1,7.529492340E0,7.605324209E0
9.790951000E0,-5.083428955E-1,1.021176453E0,7.486082611E0,7.572492767E0
9.800988000E0,-3.104544067E-1,1.182391205E0,7.527396698E0,7.626016781E0
9.811025999E0,-1.001417542E-1,1.307830353E0,7.671097870E0,7.782428357E0
9.821063000E0,2.140548706E-2,1.363963623E0,7.948770447E0,8.064974059E0
9.831100999E0,1.236428833E-1,1.380878448E0,8.293952637E0,8.409028671E0
9.841139000E0,2.001338196E-1,1.376387787E0,8.693471832E0,8.804030292E0
9.851176000E0,2.125579834E-1,1.340761871E0,9.049730988E0,9.150981053E0
9.861214000E0,1.612147522E-1,1.287322998E0,9.440717926E0,9.529446241E0
9.871251000E0,1.043330383E-1,1.167871399E0,9.795929260E0,9.865852171E0
9.881289000E0,-1.317260742E-2,1.046174469E0,1.011671219E1,1.017066960E1
9.891326000E0,-9.624984741E-2,9.482780457E-1,1.037911652E1,1.042279017E1
9.901364000E0,-1.145118713E-1,8.942404175E-1,1.067909271E1,1.071707983E1
9.911401000E0,-5.478607178E-2,8.524772644E-1,1.096649506E1,1.099971512E1
9.921438999E0,5.059478760E-2,8.144563293E-1,1.123324036E1,1.126284102E1
9.931476000E0,1.577719116E-1,7.809260559E-1,1.138502472E1,1.141286666E1
9.941513999E0,2.427951050E-1,7.497908020E-1,1.143936172E1,1.146647864E1
9.951551000E0,3.362008667E-1,7.243437195E-1,1.135673355E1,1.138477500E1
9.961589000E0,3.935316467E-1,7.277865601E-1,1.108699448E1,1.111782294E1
9.971626000E0,4.185296631E-1,7.842192078E-1,1.065963318E1,1.069663248E1
9.981664000E0,3.156935120E-1,8.913963318E-1,1.013751892E1,1.018152934E1
9.991700999E0,2.145039368E-1,1.046473846E0,9.577533417E0,9.636922009E0
1.000173900E1,1.303788757E-1,1.213975525E0,9.106013947E0,9.187503754E0
1.001177600E1,5.373825073E-2,1.331331482E0,8.744066620E0,8.845000416E0
1.002181400E1,-1.362167358E-2,1.459165649E0,8.444090424E0,8.569248101E0
1.003185100E1,-5.418731689E-2,1.535357208E0,8.230334930E0,8.372494914E0
1.004188900E1,-6.780899048E-2,1.644629974E0,8.028853912E0,8.195846567E0
1.005192600E1,-1.285826111E-1,1.761087799E0,7.865393829E0,8.061165165E0
1.006196400E1,-1.516346741E-1,1.835782471E0,7.795638885E0,8.010310605E0
1.007200100E1,-1.749861145E-1,1.955234070E0,7.768844604E0,8.013021084E0
1.008203833E1,-1.854643250E-1,2.036215668E0,7.825576630E0,8.088276754E0
1.009207533E1,-1.859133911E-1,2.074685669E0,8.047115936E0,8.312337776E0
1.010211333E1,-1.598675537E-1,2.039957886E0,8.354426880E0,8.601362351E0
1.011215033E1,-1.366658020E-1,1.972897339E0,8.654702454E0,8.877774271E0
1.012218833E1,-1.920506287E-1,1.894759827E0,8.918753357E0,9.119822350E0
1.013222533E1,-2.664459229E-1,1.804647217E0,9.145681458E0,9.325836924E0
1.014226333E1,-3.489244080E-1,1.738484802E0,9.390572205E0,9.556512124E0
1.015230033E1,-3.516188049E-1,1.662891998E0,9.600435791E0,9.749728866E0
1.016233833E1,-3.362008667E-1,1.612147522E0,9.802814941E0,9.940182666E0
1.017237533E1,-3.085084534E-1,1.562899933E0,1.003707779E1,1.016271441E1
1.018241333E1,-2.971321106E-1,1.533411255E0,1.028645920E1,1.040436833E1
1.019245033E1,-2.655477905E-1,1.555864563E0,1.053778656E1,1.065533555E1
1.020248833E1,-1.889071655E-1,1.567989349E0,1.073432785E1,1.084988806E1
1.021252533E1,-1.312770081E-1,1.563947754E0,1.086500610E1,1.097777408E1
1.022256333E1,-1.094224548E-1,1.567989349E0,1.088102280E1,1.099396293E1
1.023260033E1,-5.553451538E-2,1.618733826E0,1.088251968E1,1.100239147E1
1.024263833E1,-1.736389160E-2,1.709594879E0,1.085392914E1,1.098775655E1
1.025267533E1,8.023315430E-2,1.815275116E0,1.080034058E1,1.095212389E1
1.026271333E1,1.716929626E-1,1.892514496E0,1.068029022E1,1.084802696E1
1.027275033E1,2.351609802E-1,1.971400452E0,1.054317535E1,1.072847925E1
1.028278833E1,2.817141724E-1,2.036065979E0,1.036309982E1,1.056497825E1
1.029282533E1,3.236270142E-1,2.121538239E0,1.015832565E1,1.038254492E1
1.030286333E1,3.356021118E-1,2.192640381E0,9.981543274E0,1.022504312E1
1.031290033E1,3.065625000E-1,2.248773651E0,9.807006226E0,1.006619762E1
1.032293833E1,2.853067017E-1,2.297422485E0,9.629325714E0,9.903709593E0
1.033297533E1,2.647993469E-1,2.379302216E0,9.455387421E0,9.753745383E0
1.034301333E1,2.392025757E-1,2.476450195E0,9.347012787E0,9.672469771E0
1.035305033E1,2.258802795E-1,2.574645996E0,9.330547028E0,9.681886786E0
1.036308833E1,1.781295776E-1,2.649490356E0,9.394164734E0,9.762267172E0
1.037312533E1,1.492396545E-1,2.704426117E0,9.470206604E0,9.849924173E0
1.038316333E1,8.098159790E-2,2.752326508E0,9.628427582E0,1.001441346E1
1.039320033E1,-3.996688843E-2,2.817441101E0,9.853260040E0,1.024823424E1
1.040323833E1,-1.595681763E-1,2.944676514E0,1.004501129E1,1.046894616E1
1.041327533E1,-2.912942505E-1,2.967129822E0,1.015742752E1,1.058593622E1
1.042331333E1,-3.153941345E-1,2.886148224E0,1.029409332E1,1.069568522E1
1.043335033E1,-2.001338196E-1,2.698438568E0,1.048569489E1,1.082919302E1
1.044338833E1,1.392105103E-2,2.470013580E0,1.074735077E1,1.102754322E1
1.045342533E1,1.977388000E-1,2.310295715E0,1.098550552E1,1.122755087E1
1.046346333E1,3.321592712E-1,2.193388824E0,1.115106125E1,1.136958448E1
1.047350033E1,4.104464722E-1,2.086062012E0,1.116543137E1,1.136604499E1
1.048353833E1,4.050576782E-1,2.034569092E0,1.099568436E1,1.118966566E1
1.049357533E1,4.074526978E-1,2.038910065E0,1.067594925E1,1.087653733E1
1.050361333E1,3.614982605E-1,2.089804230E0,1.022837997E1,1.044594273E1
1.051365033E1,2.680924988E-1,2.147584076E0,9.871222687E0,1.010569287E1
1.052368833E1,2.517764282E-1,2.170935516E0,9.660011902E0,9.904149753E0
1.053372533E1,3.294648743E-1,2.141446838E0,9.614506531E0,9.855611472E0
1.054376333E1,3.992198181E-1,2.055675201E0,9.711654510E0,9.934858345E0
1.055380133E1,4.854405212E-1,1.909429321E0,9.843979340E0,1.003919828E1
1.056383833E1,5.282514954E-1,1.712738342E0,9.965676270E0,1.012557286E1
1.057387533E1,4.875361633E-1,1.540147247E0,9.916428680E0,1.004715397E1
1.058391333E1,4.085005188E-1,1.421743469E0,9.726324005E0,9.838170857E0
1.059395133E1,3.173400879E-1,1.340163116E0,9.365873566E0,9.466590176E0
1.060398833E1,2.368075562E-1,1.297501831E0,8.956325226E0,9.052919439E0
1.061402533E1,1.402583313E-1,1.349743195E0,8.593479767E0,8.699964000E0
1.062406333E1,1.589694214E-1,1.448537750E0,8.358019409E0,8.484104038E0
1.063410133E1,2.282752991E-1,1.555714874E0,8.232131195E0,8.380951163E0
1.064413833E1,3.906875610E-1,1.665287018E0,8.191266174E0,8.367954300E0
1.065417633E1,5.495072937E-1,1.773362274E0,8.263715515E0,8.469696933E0
1.066421333E1,7.243437195E-1,1.898951111E0,8.428672485E0,8.670248498E0
1.067425133E1,8.599617004E-1,1.981429596E0,8.626261597E0,8.892580419E0
1.068428833E1,9.701325989E-1,2.017504578E0,8.826694794E0,9.106153028E0
1.069432633E1,1.056203613E0,1.936822357E0,8.970845032E0,9.238122509E0
1.070436333E1,1.110989685E0,1.817520447E0,9.027876434E0,9.275787383E0
1.071440133E1,1.122216339E0,1.743125153E0,8.980425110E0,9.216609461E0
1.072443833E1,1.087638245E0,1.739382935E0,8.896449738E0,9.129908427E0
1.073447633E1,1.022972717E0,1.749711456E0,8.828491058E0,9.058157524E0
1.074451333E1,9.828561401E-1,1.729952545E0,8.877888336E0,9.098112074E0
1.075455133E1,9.915380859E-1,1.778751068E0,9.116342468E0,9.341027949E0
1.076458833E1,9.910890198E-1,1.809137878E0,9.529782715E0,9.750486957E0
1.077462633E1,1.008901978E0,1.795965271E0,1.003288651E1,1.024217682E1
1.078466333E1,1.013242950E0,1.706750793E0,1.046518753E1,1.065175148E1
1.079470133E1,9.264234924E-1,1.545386353E0,1.069570816E1,1.084641197E1
1.080473833E1,7.003935242E-1,1.396745453E0,1.073866882E1,1.085174903E1
1.081477633E1,4.141886902E-1,1.253493347E0,1.063628174E1,1.071789565E1
1.082481333E1,1.363664246E-1,1.146765289E0,1.043105850E1,1.049479147E1
1.083485133E1,-7.843688965E-2,1.139879608E0,1.021415955E1,1.027786617E1
1.084488833E1,-2.285746765E-1,1.171463928E0,9.987381134E0,1.005844700E1
1.085492633E1,-3.077600098E-1,1.253643036E0,9.784403229E0,9.869188600E0
1.086496333E1,-2.680924988E-1,1.354533234E0,9.579179993E0,9.678188012E0
1.087500133E1,-1.216969299E-1,1.485361176E0,9.419312439E0,9.536485453E0
1.088503833E1,3.787124634E-2,1.647474060E0,9.255403290E0,9.400962454E0
1.089507633E1,2.348616028E-1,1.833686829E0,9.106463013E0,9.292213728E0
1.090511333E1,4.493655396E-1,2.054777069E0,8.981472931E0,9.224472570E0
1.091515133E1,7.101232910E-1,2.267185364E0,8.910670166E0,9.221954639E0
1.092518833E1,9.107061768E-1,2.470911713E0,8.869655457E0,9.252328266E0
1.093522633E1,1.143621826E0,2.647694092E0,8.853638763E0,9.311555952E0
1.094526333E1,1.289867706E0,2.804418182E0,8.920699310E0,9.439671405E0
1.095530133E1,1.427431641E0,2.929258575E0,9.021140442E0,9.591615701E0
1.096533833E1,1.491797791E0,3.037633209E0,9.175170135E0,9.779387669E0
1.097537633E1,1.554517365E0,3.091670837E0,9.358688507E0,9.977975916E0
1.098541333E1,1.501078491E0,3.101999359E0,9.480235748E0,1.008714561E1
1.099545133E1,1.342707825E0,3.068169708E0,9.537267151E0,1.010821420E1
1.100548833E1,1.021775208E0,2.956651611E0,9.511371002E0,1.001259166E1
1.101552633E1,6.584806824E-1,2.780917053E0,9.450148315E0,9.872811132E0
1.102556333E1,2.818638611E-1,2.606230316E0,9.427695007E0,9.785362377E0
1.103560133E1,-1.146615601E-1,2.457290039E0,9.429640961E0,9.745232181E0
1.104563833E1,-4.926255798E-1,2.270777893E0,9.463320923E0,9.744411480E0
1.105567633E1,-8.646020508E-1,2.068847809E0,9.480385437E0,9.741939027E0
1.106571333E1,-1.157991943E0,1.858086090E0,9.423653412E0,9.674640711E0
1.107575133E1,-1.466650085E0,1.664239197E0,9.275611267E0,9.537175628E0
1.108578858E1,-1.683399353E0,1.535357208E0,9.118138733E0,9.398489724E0
1.109582658E1,-1.701362000E0,1.498533783E0,8.912765808E0,9.196609729E0
1.110586358E1,-1.614093475E0,1.529369659E0,8.630901947E0,8.912728972E0
1.111590158E1,-1.407373352E0,1.617087250E0,8.367898865E0,8.638136508E0
1.112593858E1,-1.154100037E0,1.745370483E0,8.226443024E0,8.488382051E0
1.113597658E1,-8.813671875E-1,1.911225586E0,8.201445007E0,8.467189118E0
1.114601358E1,-5.876779175E-1,2.078876953E0,8.318351898E0,8.594304685E0
1.115605158E1,-3.263214111E-1,2.273771667E0,8.507259064E0,8.811922607E0
1.116608858E1,-6.960525513E-2,2.385888519E0,8.806935883E0,9.124660463E0
1.117612658E1,1.347198486E-1,2.425406342E0,9.155560913E0,9.472330283E0
1.118616358E1,1.787283325E-1,2.282902679E0,9.490115204E0,9.762472793E0
1.119620158E1,2.055226135E-1,2.056872711E0,9.771380310E0,9.987634257E0
1.120623858E1,1.963916016E-1,1.819915466E0,1.001821701E1,1.018407257E1
1.121627658E1,1.133143616E-1,1.669927368E0,1.021924896E1,1.035541148E1
1.122631358E1,8.981323242E-2,1.543290710E0,1.040486298E1,1.051907725E1
1.123635158E1,1.067280579E-1,1.402583313E0,1.057296341E1,1.066612329E1
1.124638858E1,1.243913269E-1,1.227297821E0,1.072205338E1,1.079278285E1
1.125642658E1,1.544787598E-1,1.141077118E0,1.087473587E1,1.093552929E1
1.126646358E1,1.047821045E-1,1.020577698E0,1.099313965E1,1.104090927E1
1.127650158E1,7.005432129E-2,8.934919739E-1,1.108968887E1,1.112584535E1
1.128653858E1,1.302291870E-2,7.229965210E-1,1.110765152E1,1.113116417E1
1.129657658E1,-3.592529297E-3,5.180726624E-1,1.114088242E1,1.115292218E1
1.130661358E1,-4.924758911E-2,3.225791931E-1,1.113654144E1,1.114132119E1
1.131665158E1,-1.083746338E-1,1.416055298E-1,1.109852051E1,1.109995291E1
1.132668858E1,-1.643582153E-1,-2.529739380E-2,1.100571350E1,1.100696976E1
1.133672658E1,-2.119592285E-1,-1.625619507E-1,1.081456100E1,1.081785944E1
1.134676358E1,-2.347119141E-1,-2.737806702E-1,1.055769516E1,1.056385217E1
1.135680158E1,-2.287243652E-1,-3.403921509E-1,1.025532394E1,1.026352039E1
1.136683858E1,-1.956431580E-1,-2.992277527E-1,9.931098175E0,9.937531105E0
1.137687658E1,-7.020401001E-2,-2.013313293E-1,9.719737701E0,9.722076110E0
1.138691358E1,9.490264893E-2,-1.103205872E-1,9.537716217E0,9.538826331E0
1.139695158E1,2.902464294E-1,-1.077758789E-2,9.424850922E0,9.429325217E0
1.140698858E1,4.671784973E-1,4.700225830E-2,9.319769440E0,9.331589756E0
1.141702658E1,5.104385376E-1,7.544311523E-2,9.138795776E0,9.153350611E0
1.142706358E1,4.881349182E-1,8.337661743E-2,8.926387482E0,8.940113021E0
1.143710158E1,3.585044861E-1,1.047821045E-1,8.709189148E0,8.717194524E0
1.144713858E1,1.761836243E-1,1.633103943E-1,8.418793030E0,8.422219840E0
1.145717658E1,3.173400879E-2,2.056723022E-1,8.153394928E0,8.156050331E0
1.146721358E1,-1.007405090E-1,3.020718384E-1,7.877069550E0,7.883503075E0
1.147725158E1,-1.936972046E-1,4.132905579E-1,7.627837830E0,7.641481378E0
1.148728858E1,-2.805166626E-1,5.602848816E-1,7.478747864E0,7.504950257E0
1.149732658E1,-3.318598938E-1,7.384144592E-1,7.449259186E0,7.493120132E0
1.150736358E1,-3.421884155E-1,9.454339600E-1,7.577093353E0,7.643512410E0
1.151740158E1,-2.785707092E-1,1.155596924E0,7.908204803E0,7.997043773E0
1.152743858E1,-1.492396545E-1,1.291514282E0,8.374335480E0,8.474654939E0
1.153747658E1,-2.709365845E-2,1.342109070E0,8.916957092E0,9.017433926E0
1.154751358E1,4.251159668E-2,1.318607941E0,9.436227264E0,9.528007091E0
1.155755158E1,3.996688843E-2,1.249451752E0,9.868528290E0,9.947390494E0
1.156758858E1,-3.592529297E-2,1.151555328E0,1.029244675E1,1.035672875E1
1.157762658E1,-1.517843628E-1,1.044228516E0,1.071411987E1,1.076595636E1
1.158766358E1,-2.447410583E-1,9.297166443E-1,1.115510284E1,1.119645438E1
1.159770158E1,-3.529660034E-1,8.168513489E-1,1.157947037E1,1.161361120E1
1.160773858E1,-4.822970581E-1,7.000941467E-1,1.191791656E1,1.194819976E1
1.161777658E1,-5.736071777E-1,5.816903687E-1,1.221010895E1,1.223740779E1
1.162781358E1,-6.686595154E-1,4.471202087E-1,1.241009308E1,1.243613414E1
1.163785158E1,-7.014413452E-1,2.860551453E-1,1.251771927E1,1.254061973E1
1.164788858E1,-7.330256653E-1,1.291813660E-1,1.251637207E1,1.253848413E1
1.165792658E1,-7.518864441E-1,-1.661544800E-2,1.245589783E1,1.247858165E1
1.166796358E1,-7.768844604E-1,-9.654922485E-2,1.238898697E1,1.241369684E1
1.167800158E1,-7.598199463E-1,-1.381626892E-1,1.226609253E1,1.229038003E1
1.168803858E1,-7.132667542E-1,-1.532812500E-1,1.207479034E1,1.209680976E1
1.169807658E1,-6.715036011E-1,-1.576222229E-1,1.180160843E1,1.182174790E1
1.170811358E1,-6.297404480E-1,-1.477427673E-1,1.148157394E1,1.149978005E1
1.171815158E1,-6.053411865E-1,-7.649093628E-2,1.113639175E1,1.115309419E1
1.172818858E1,-5.915698242E-1,-1.062789917E-2,1.077803696E1,1.079426461E1
1.173822658E1,-5.194198608E-1,1.082249451E-1,1.050695068E1,1.052033851E1
1.174826358E1,-4.236190796E-1,1.791773987E-1,1.028960266E1,1.029987770E1
1.175830158E1,-2.737806702E-1,2.601589966E-1,1.012569351E1,1.013273446E1
1.176833858E1,-1.222956848E-1,2.971321106E-1,1.004830444E1,1.005344050E1
1.177837658E1,-8.981323242E-4,3.284170532E-1,9.994266815E0,9.999661381E0
1.178841358E1,1.014889526E-1,3.743714905E-1,9.994117126E0,1.000164142E1
1.179845158E1,1.610650635E-1,4.388873291E-1,1.003782623E1,1.004870736E1
1.180848858E1,2.270777893E-1,4.561015320E-1,1.004111938E1,1.005403757E1
1.181852658E1,3.484753418E-1,4.568499756E-1,1.009665390E1,1.011299001E1
1.182856358E1,4.611909485E-1,4.447251892E-1,1.013362701E1,1.015386006E1
1.183860158E1,5.294490051E-1,4.620890808E-1,1.014545242E1,1.016976142E1
1.184863858E1,5.652246094E-1,4.644841003E-1,1.015772690E1,1.018403850E1
1.185867658E1,5.456153870E-1,4.263134766E-1,1.017134857E1,1.019488946E1
1.186871358E1,4.965174866E-1,3.833528137E-1,1.018092865E1,1.020023515E1
1.187875158E1,3.671864319E-1,3.116519165E-1,1.015578094E1,1.016719427E1
1.188878858E1,2.354603577E-1,2.230361938E-1,1.010653336E1,1.011173591E1
1.189882658E1,1.438508606E-1,1.263372803E-1,1.002764740E1,1.002947489E1
1.190886358E1,8.337661743E-2,6.496490479E-2,9.953252106E0,9.953813318E0
1.191890158E1,6.481521606E-2,4.176315308E-2,9.924511871E0,9.924811386E0
1.192893858E1,4.011657715E-2,9.011260986E-2,9.891580353E0,9.892072154E0
1.193897658E1,1.691482544E-2,1.384620667E-1,9.845176849E0,9.846164992E0
1.194901358E1,8.981323242E-3,1.752854919E-1,9.800868988E0,9.802440440E0
1.195905158E1,5.628295898E-2,2.483335876E-1,9.779313812E0,9.782628276E0
1.196908858E1,1.344204712E-1,3.323089600E-1,9.781708832E0,9.788274913E0
1.197912658E1,2.398013306E-1,4.435276794E-1,9.765392761E0,9.778400547E0
1.198916358E1,3.649411011E-1,6.005511475E-1,9.716145172E0,9.741525583E0
1.199920158E1,5.324427795E-1,7.773335266E-1,9.658065948E0,9.703915735E0
1.200923858E1,7.021897888E-1,9.559121704E-1,9.620194702E0,9.693037949E0
1.201927658E1,8.660989380E-1,1.121467896E0,9.588161316E0,9.692298749E0
1.202931358E1,1.051563263E0,1.310075684E0,9.585766296E0,9.731854863E0
1.203935158E1,1.194965057E0,1.501976624E0,9.607770538E0,9.797608381E0
1.204938858E1,1.283431091E0,1.654060364E0,9.591753845E0,9.817578769E0
1.205942658E1,1.306483154E0,1.808688812E0,9.556876373E0,9.813874845E0
1.206946358E1,1.311871948E0,1.948198700E0,9.468560028E0,9.755517167E0
1.207950158E1,1.276096344E0,2.051483917E0,9.368717651E0,9.675219820E0
1.208953800E1,1.173409882E0,2.112107849E0,9.217981110E0,9.529379101E0
1.209957600E1,1.000669098E0,2.135459290E0,9.123228149E0,9.423100174E0
1.210961300E1,8.024812317E-1,2.165097656E0,9.086853790E0,9.375635221E0
1.211965100E1,6.441105652E-1,2.157912598E0,9.053473206E0,9.329353798E0
1.212968800E1,5.348377991E-1,2.117047577E0,8.982820129E0,9.244403680E0
1.213972600E1,4.225712585E-1,2.074236603E0,8.901090088E0,9.149340343E0
1.214976300E1,3.264710999E-1,2.054477692E0,8.836424561E0,9.077987716E0
1.215980100E1,2.854563904E-1,2.067949677E0,8.764573975E0,9.009753502E0
1.216983800E1,2.662962341E-1,2.106719055E0,8.705147552E0,8.960400257E0
1.217987600E1,2.236349487E-1,2.187550964E0,8.663534088E0,8.938244498E0
1.218991300E1,2.028282166E-1,2.246827698E0,8.589737549E0,8.881045273E0
1.219995100E1,1.718426514E-1,2.297572174E0,8.558302917E0,8.863008328E0
1.220998800E1,4.311035156E-2,2.402354279E0,8.644673309E0,8.972376564E0
1.222002600E1,-1.812730408E-1,2.543510742E0,8.758885803E0,9.122520887E0
1.223006300E1,-3.388952637E-1,2.684367828E0,8.882378998E0,9.285329143E0
1.224010100E1,-4.382885742E-1,2.790048065E0,9.013955383E0,9.446049795E0
1.225013800E1,-4.153862000E-1,2.841391296E0,9.177265778E0,9.616041667E0
1.226017600E1,-3.327580261E-1,2.674488373E0,9.347461853E0,9.728240286E0
1.227021300E1,-8.786727905E-2,2.420915680E0,9.605076141E0,9.905858926E0
1.228025100E1,1.092727661E-1,2.291584625E0,9.971065063E0,1.023159025E1
1.229028800E1,2.059716797E-1,2.277214508E0,1.018197647E1,1.043555342E1
1.230032600E1,1.707948303E-1,2.305655365E0,1.016700760E1,1.042656516E1
1.231036300E1,1.999841309E-1,2.368973694E0,1.000429596E1,1.028289685E1
1.232040100E1,2.288740540E-1,2.391127625E0,9.874515839E0,1.016247695E1
1.233043800E1,1.639091492E-1,2.416724396E0,9.879455566E0,1.017207281E1
1.234047600E1,1.321751404E-1,2.436632996E0,1.001103195E1,1.030414535E1
1.235051300E1,1.050814819E-1,2.450104980E0,1.031654663E1,1.060401768E1
1.236055100E1,9.430389404E-2,2.325264587E0,1.077459412E1,1.102304980E1
1.237058800E1,1.140628052E-1,2.066153412E0,1.118054993E1,1.137043081E1
1.238062600E1,1.197509766E-1,1.831142120E0,1.142109970E1,1.156758143E1
1.239066300E1,1.901046753E-1,1.606459351E0,1.140014328E1,1.151434402E1
1.240070100E1,2.056723022E-1,1.364562378E0,1.117171829E1,1.125662566E1
1.241073800E1,2.436932373E-1,1.205592957E0,1.079195801E1,1.086182298E1
1.242077600E1,2.915936279E-1,1.239721985E0,1.036070480E1,1.043868485E1
1.243081300E1,3.561094666E-1,1.400936737E0,9.939331055E0,1.004389066E1
1.244085100E1,4.842430115E-1,1.584754486E0,9.608818359E0,9.750657841E0
1.245088800E1,6.659651184E-1,1.768871613E0,9.439520416E0,9.626887452E0
1.246092600E1,8.496331787E-1,1.917362823E0,9.345216522E0,9.577642120E0
1.247096300E1,1.030008087E0,2.070793762E0,9.358389130E0,9.639945569E0
1.248100100E1,1.242865448E0,2.129621429E0,9.434281311E0,9.751187918E0
1.249103800E1,1.512903900E0,2.106868744E0,9.511221313E0,9.858554914E0
1.250107600E1,1.763033752E0,2.058968353E0,9.661059723E0,1.003412745E1
1.251111300E1,1.943258972E0,1.961520996E0,9.833950195E0,1.021422520E1
1.252115100E1,2.044897614E0,1.837878113E0,9.964329071E0,1.033669464E1
1.253118800E1,2.038910065E0,1.670376434E0,1.003004242E1,1.037058642E1
1.254122600E1,1.999691620E0,1.442849579E0,1.002091141E1,1.031984723E1
1.255126300E1,1.855691071E0,1.190474396E0,9.903256073E0,1.014570350E1
1.256130100E1,1.611099701E0,9.922865295E-1,9.655670929E0,9.839321922E0
1.257133800E1,1.316362610E0,8.692424011E-1,9.308093719E0,9.440815726E0
1.258137600E1,1.024768982E0,7.885601807E-1,8.966653748E0,9.059407158E0
1.259141300E1,8.005352783E-1,8.292755127E-1,8.715176697E0,8.791067026E0
1.260145100E1,6.545887756E-1,1.005908203E0,8.651708679E0,8.734552126E0
1.261148800E1,5.911207581E-1,1.199156342E0,8.702004089E0,8.804105568E0
1.262152600E1,5.445675659E-1,1.269510040E0,8.685987396E0,8.795145628E0
1.263156300E1,5.676196289E-1,1.256487122E0,8.557404785E0,8.667763759E0
1.264160100E1,5.789959717E-1,1.260079651E0,8.327333221E0,8.442008981E0
1.265163800E1,5.532495117E-1,1.331780548E0,8.026608582E0,8.155131499E0
1.266167600E1,4.625381470E-1,1.421294403E0,7.764503632E0,7.907056087E0
1.267171300E1,3.671864319E-1,1.593286743E0,7.555538177E0,7.730429850E0
1.268175100E1,2.818638611E-1,1.800455933E0,7.406148834E0,7.627065580E0
1.269178800E1,2.225871277E-1,2.036365356E0,7.364984436E0,7.644561769E0
1.270182600E1,2.489323425E-1,2.240391083E0,7.372169495E0,7.709098687E0
1.271186300E1,2.267784119E-1,2.434237976E0,7.479047241E0,7.868487187E0
1.272190100E1,2.234852600E-1,2.571951599E0,7.613767090E0,8.039547872E0
1.273193800E1,2.911445618E-1,2.637964325E0,7.873177643E0,8.308462381E0
1.274197600E1,4.429289246E-1,2.596500549E0,8.439450073E0,8.840945576E0
1.275201300E1,5.912704468E-1,2.434836731E0,9.141789551E0,9.478942285E0
1.276205100E1,6.738986206E-1,2.234553223E0,9.774823151E0,1.004960373E1
1.277208800E1,7.246430969E-1,2.058668976E0,1.020877075E1,1.043945525E1
1.278212600E1,6.740483093E-1,1.890418854E0,1.050889664E1,1.069882859E1
1.279216300E1,5.475613403E-1,1.748214569E0,1.062969543E1,1.078640360E1
1.280220100E1,3.257226562E-1,1.664688263E0,1.062430664E1,1.075886490E1
1.281223800E1,7.214996338E-2,1.603465576E0,1.041833496E1,1.054125281E1
1.282227600E1,-1.315763855E-1,1.608704681E0,1.014185989E1,1.026949683E1
1.283231300E1,-2.947370911E-1,1.679357758E0,9.859247589E0,1.000559221E1
1.284235100E1,-3.227288818E-1,1.867516479E0,9.681118011E0,9.864877986E0
1.285238800E1,-2.891986084E-1,2.056872711E0,9.564510498E0,9.787452286E0
1.286242600E1,-2.432441711E-1,2.194586334E0,9.463171234E0,9.717354924E0
1.287246300E1,-1.667532349E-1,2.313888245E0,9.416019287E0,9.697592725E0
1.288250100E1,-1.790277100E-1,2.404898987E0,9.424850922E0,9.728484206E0
1.289253800E1,-1.625619507E-1,2.475252686E0,9.488318939E0,9.807216656E0
1.290257500E1,-1.919009399E-1,2.489772491E0,9.607620850E0,9.926840959E0
1.291261300E1,-2.218386841E-1,2.471360779E0,9.749974823E0,1.006075770E1
1.292265100E1,-2.074685669E-1,2.423310699E0,9.986932068E0,1.027882727E1
1.293268800E1,-1.383123779E-1,2.350412292E0,1.025547363E1,1.052227674E1
1.294272500E1,-5.284011841E-2,2.283950500E0,1.042686722E1,1.067421107E1
1.295276300E1,2.095642090E-2,2.256258087E0,1.052805679E1,1.076713145E1
1.296280000E1,1.128652954E-1,2.286644897E0,1.055185730E1,1.079736894E1
1.297283800E1,2.200424194E-1,2.348616028E0,1.051967422E1,1.078090728E1
1.298287500E1,3.243754578E-1,2.407743073E0,1.039648041E1,1.067657487E1
1.299291300E1,4.442761230E-1,2.492167511E0,1.027613068E1,1.058334266E1
1.300295000E1,5.516029358E-1,2.579286346E0,1.021745270E1,1.055240842E1
1.301298800E1,6.891668701E-1,2.657872925E0,1.023391846E1,1.059586365E1
1.302302500E1,7.629634094E-1,2.721490631E0,1.029813492E1,1.067896096E1
1.303306300E1,7.923023987E-1,2.771037598E0,1.048285080E1,1.087182383E1
1.304310000E1,7.589218140E-1,2.802921295E0,1.068702621E1,1.107451396E1
1.305313800E1,6.140231323E-1,2.858605499E0,1.090991272E1,1.129490351E1
1.306317500E1,4.017645264E-1,2.861150208E0,1.110271179E1,1.147248031E1
1.307321300E1,1.772314453E-1,2.749931488E0,1.117695740E1,1.151164240E1
1.308325000E1,3.547622681E-2,2.636467438E0,1.118953125E1,1.149599185E1
1.309328858E1,-2.694396973E-2,2.517614594E0,1.121063736E1,1.148988682E1
1.310332558E1,-7.843688965E-2,2.402653656E0,1.137140305E1,1.162272361E1
1.311336358E1,-1.137634277E-1,2.229314117E0,1.164099243E1,1.185307928E1
1.312340058E1,-1.772314453E-1,1.931433563E0,1.205982147E1,1.221479187E1
1.313343858E1,-2.953358459E-1,1.581012268E0,1.243613892E1,1.253971189E1
1.314347558E1,-4.361929321E-1,1.211580505E0,1.261127472E1,1.267684668E1
1.315351358E1,-6.454577637E-1,7.050338745E-1,1.259540771E1,1.263162634E1
1.316355058E1,-8.069718933E-1,2.242337036E-1,1.236877899E1,1.239710362E1
1.317358858E1,-1.088835754E0,-2.049238586E-1,1.196596664E1,1.201715086E1
1.318362558E1,-1.392853546E0,-4.902305603E-1,1.135314102E1,1.144876317E1
1.319366358E1,-1.673669586E0,-6.366261292E-1,1.064017365E1,1.078979879E1
1.320370058E1,-1.837129669E0,-6.198609924E-1,9.837991791E0,1.002723070E1
1.321373858E1,-1.919159088E0,-3.992198181E-1,9.048383789E0,9.258282630E0
1.322377558E1,-1.874252472E0,-9.639953613E-2,8.351732483E0,8.559997118E0
1.323381358E1,-1.698517914E0,1.746867371E-1,7.789651337E0,7.974593815E0
1.324385058E1,-1.570534058E0,5.659730530E-1,7.368576965E0,7.555317943E0
1.325388858E1,-1.461710358E0,1.056652679E0,7.102131042E0,7.327576502E0
1.326392558E1,-1.339863739E0,1.589993591E0,6.968309326E0,7.271908231E0
1.327396358E1,-1.128203888E0,2.094145203E0,6.931485901E0,7.328286630E0
1.328400058E1,-7.580236816E-1,2.470462646E0,7.047794037E0,7.506609513E0
1.329403858E1,-3.733236694E-1,2.706671448E0,7.332352295E0,7.824885371E0
1.330407558E1,1.047821045E-3,2.770139465E0,7.680079193E0,8.164391598E0
1.331411358E1,2.583627319E-1,2.636168060E0,8.172555084E0,8.591087821E0
1.332415058E1,5.043013000E-1,2.373164978E0,8.897048492E0,9.221914318E0
1.333418858E1,7.147636414E-1,2.113604736E0,9.675130463E0,9.929066498E0
1.334422558E1,8.096662903E-1,1.892664185E0,1.042432251E1,1.062564055E1
1.335426358E1,7.837701416E-1,1.664089508E0,1.103400467E1,1.118627501E1
1.336430058E1,5.878276062E-1,1.396446075E0,1.140119110E1,1.150142432E1
1.337433858E1,1.721420288E-1,1.182690582E0,1.151031418E1,1.157219609E1
1.338437558E1,-3.201841736E-1,9.261241150E-1,1.137364838E1,1.141578299E1
1.339441358E1,-7.698490906E-1,6.581813049E-1,1.099059494E1,1.103716664E1
1.340445058E1,-1.138083344E0,4.272116089E-1,1.047821045E1,1.054848983E1
1.341448858E1,-1.389560394E0,3.270698547E-1,9.902507629E0,1.000487432E1
1.342452558E1,-1.525777130E0,3.640429688E-1,9.374854889E0,9.505178974E0
1.343456358E1,-1.520238647E0,5.785469055E-1,8.936266937E0,9.083100178E0
1.344460058E1,-1.447340240E0,8.249345398E-1,8.572223969E0,8.732601819E0
1.345463858E1,-1.383572845E0,1.070124664E0,8.228838043E0,8.412681865E0
1.346467558E1,-1.268911285E0,1.304686890E0,7.971523132E0,8.176645081E0
1.347471358E1,-1.177002411E0,1.513203278E0,7.731721802E0,7.965842131E0
1.348475058E1,-1.068478088E0,1.726809082E0,7.538773041E0,7.807471677E0
1.349478858E1,-1.024319916E0,1.972747650E0,7.382498016E0,7.709879477E0
1.350482558E1,-1.029409332E0,2.218835907E0,7.284900970E0,7.684575363E0
1.351486358E1,-1.006357269E0,2.471510468E0,7.246880035E0,7.722589539E0
1.352490058E1,-9.815089417E-1,2.682421875E0,7.242089996E0,7.785025012E0
1.353493858E1,-9.574090576E-1,2.835403748E0,7.282356262E0,7.873300404E0
1.354497558E1,-9.616003418E-1,2.942580872E0,7.389683075E0,8.011920703E0
1.355501358E1,-9.774673462E-1,2.998714142E0,7.593110046E0,8.222107339E0
1.356505058E1,-9.524693298E-1,2.989732819E0,7.943531342E0,8.540807358E0
1.357508758E1,-8.707392883E-1,2.906505890E0,8.318351898E0,8.854430625E0
1.358512558E1,-8.223898315E-1,2.841690674E0,8.676407318E0,9.166873778E0
1.359516258E1,-8.273295593E-1,2.819237366E0,8.967402191E0,9.436465206E0
1.360520058E1,-8.638536072E-1,2.845432892E0,9.202263794E0,9.670800915E0
1.361523758E1,-9.111552429E-1,2.822081451E0,9.396859131E0,9.853695201E0
1.362527558E1,-1.027762756E0,2.818488922E0,9.524842987E0,9.986130883E0
1.363531258E1,-1.119671631E0,2.791544952E0,9.591903534E0,1.005241270E1
1.364535058E1,-1.164727936E0,2.751578064E0,9.607171783E0,1.006108954E1
1.365538758E1,-1.263073425E0,2.732866974E0,9.637408905E0,1.009671069E1
1.366542558E1,-1.266665955E0,2.722239075E0,9.719887390E0,1.017306439E1
1.367546258E1,-1.223555603E0,2.713557129E0,9.861642609E0,1.030109099E1
1.368550058E1,-1.214574280E0,2.672692108E0,9.921218719E0,1.034645131E1
1.369553758E1,-1.208586731E0,2.574196930E0,9.908046112E0,1.030808176E1
1.370557558E1,-1.285975800E0,2.477947083E0,9.822124786E0,1.021117480E1
1.371561258E1,-1.328188019E0,2.464774475E0,9.729916534E0,1.012474555E1
1.372565058E1,-1.379830627E0,2.495161285E0,9.645791473E0,1.005838235E1
1.373568758E1,-1.377435608E0,2.530338135E0,9.561516724E0,9.986117463E0
1.374572558E1,-1.359323273E0,2.621797943E0,9.531878357E0,9.978892184E0
1.375576258E1,-1.335672455E0,2.708168335E0,9.501042480E0,9.969353282E0
1.376580058E1,-1.284029846E0,2.787802734E0,9.516161041E0,9.998894824E0
1.377583758E1,-1.255738678E0,2.790646820E0,9.613458710E0,1.008876492E1
1.378587558E1,-1.157692566E0,2.773432617E0,9.745484161E0,1.019836468E1
1.379591258E1,-1.030457153E0,2.693798218E0,9.872719574E0,1.028537712E1
1.380595058E1,-9.348060608E-1,2.599943390E0,1.002180954E1,1.039568345E1
1.381598758E1,-8.153544617E-1,2.569706268E0,1.022912842E1,1.057843379E1
1.382602558E1,-7.945477295E-1,2.675386505E0,1.030696655E1,1.067813460E1
1.383606258E1,-7.740403748E-1,2.839595032E0,1.017329453E1,1.059048441E1
1.384610058E1,-6.246510315E-1,2.904410248E0,1.005174728E1,1.048157485E1
1.385613758E1,-2.496807861E-1,2.877615967E0,1.015473312E1,1.055753849E1
1.386617558E1,3.582051086E-1,2.723436584E0,1.061233154E1,1.096207090E1
1.387621258E1,9.809101868E-1,2.530188446E0,1.138262970E1,1.170163652E1
1.388625058E1,1.506766663E0,2.370021515E0,1.231010101E1,1.262639833E1
1.389628758E1,1.894759827E0,2.114353180E0,1.320643707E1,1.350816732E1
1.390632558E1,2.051932983E0,1.729952545E0,1.367496277E1,1.393584484E1
1.391636258E1,2.066901855E0,1.154399414E0,1.369681732E1,1.389991101E1
1.392640058E1,1.754202118E0,5.673202515E-1,1.328726898E1,1.341456650E1
1.393643758E1,1.154848480E0,1.227447510E-1,1.260214371E1,1.265554295E1
1.394647558E1,4.318519592E-1,-1.887574768E-1,1.180864380E1,1.181804526E1
1.395651258E1,-2.444416809E-1,-4.960684204E-1,1.106349335E1,1.107730656E1
1.396655058E1,-6.855743408E-1,-7.247927856E-1,1.046309189E1,1.051054845E1
1.397658758E1,-9.150471497E-1,-8.469387817E-1,1.002405487E1,1.010130153E1
1.398662558E1,-1.015637970E0,-8.267308044E-1,9.759105835E0,9.846580676E0
1.399666258E1,-9.458830261E-1,-7.131170654E-1,9.581874390E0,9.654819909E0
1.400670058E1,-7.801776123E-1,-5.396278381E-1,9.391021271E0,9.438811144E0
1.401673758E1,-5.689668274E-1,-3.803590393E-1,9.158854065E0,9.184389149E0
1.402677558E1,-2.406994629E-1,-1.679507446E-1,8.917705536E0,8.922534153E0
1.403681258E1,7.319778442E-2,7.679031372E-2,8.682095490E0,8.682743619E0
1.404685058E1,4.058061218E-1,3.435356140E-1,8.445138245E0,8.461858856E0
1.405688758E1,7.017407227E-1,6.641688538E-1,8.218359833E0,8.274962154E0
1.406692458E1,1.069076843E0,9.842033386E-1,8.109087067E0,8.238256767E0
1.407696258E1,1.486558685E0,1.202898560E0,8.042625275E0,8.266839963E0
1.408699933E1,1.921703796E0,1.319955139E0,8.082442474E0,8.411961923E0
1.409703733E1,2.281555481E0,1.375040588E0,8.216713257E0,8.637743269E0
1.410707433E1,2.488874359E0,1.412612457E0,8.552614746E0,9.018713241E0
1.411711233E1,2.532583466E0,1.384321289E0,9.033265228E0,9.483153754E0
1.412714933E1,2.407294006E0,1.219813385E0,9.494755554E0,9.870835434E0
1.413718733E1,2.020198975E0,9.205856323E-1,9.724078674E0,9.974286334E0
1.414722433E1,1.465302887E0,5.849835205E-1,9.746981049E0,9.873852229E0
1.415726233E1,7.803273010E-1,3.210823059E-1,9.669591980E0,9.706338836E0
1.416729933E1,1.284329224E-1,6.002517700E-2,9.519154816E0,9.520210420E0
1.417733733E1,-4.198768616E-1,-1.261875916E-1,9.295220490E0,9.305554461E0
1.418737433E1,-9.358538818E-1,-1.898052979E-1,9.121132507E0,9.170981777E0
1.419741233E1,-1.262774048E0,-1.669029236E-1,9.013206940E0,9.102766295E0
1.420744933E1,-1.391506348E0,-6.855743408E-2,8.967551880E0,9.075129572E0
1.421748733E1,-1.334474945E0,9.086105347E-2,8.904383240E0,9.004283425E0
1.422752433E1,-1.181642761E0,3.365002441E-1,8.841963043E0,8.926915620E0
1.423756233E1,-1.014290771E0,6.255491638E-1,8.799002380E0,8.879332205E0
1.424759933E1,-8.527766418E-1,9.292675781E-1,8.722661133E0,8.813375260E0
1.425763733E1,-7.177574158E-1,1.159488831E0,8.558003540E0,8.665968766E0
1.426767433E1,-5.339396667E-1,1.324296112E0,8.416547699E0,8.536810114E0
1.427771233E1,-4.162843323E-1,1.451531525E0,8.322094116E0,8.457983619E0
1.428774933E1,-3.324586487E-1,1.597028961E0,8.296647034E0,8.455494205E0
1.429778733E1,-3.356021118E-1,1.751807098E0,8.338110809E0,8.526754878E0
1.430782433E1,-3.481759644E-1,1.914069672E0,8.524473267E0,8.743656768E0
1.431786233E1,-4.068539429E-1,2.016606445E0,8.744815063E0,8.983541739E0
1.432789933E1,-4.719685364E-1,2.003134460E0,8.944948883E0,9.178638923E0
1.433793733E1,-5.601351929E-1,1.894011383E0,9.135502625E0,9.346573637E0
1.434797433E1,-6.623725891E-1,1.737287292E0,9.294022980E0,9.478173228E0
1.435801233E1,-7.803273010E-1,1.632654877E0,9.465117188E0,9.636540666E0
1.436804933E1,-9.518705750E-1,1.568737793E0,9.589508514E0,9.763486539E0
1.437808733E1,-1.124461670E0,1.540296936E0,9.654772797E0,9.841319345E0
1.438812433E1,-1.261426849E0,1.511706390E0,9.726324005E0,9.923599778E0
1.439816233E1,-1.388961639E0,1.492546234E0,9.807305603E0,1.001699316E1
1.440819933E1,-1.417701874E0,1.513502655E0,9.856702881E0,1.007249525E1
1.441823733E1,-1.386267242E0,1.541195068E0,9.880204010E0,1.009531824E1
1.442827433E1,-1.261576538E0,1.584904175E0,9.832902374E0,1.003939568E1
1.443831233E1,-1.175206146E0,1.668131104E0,9.734556885E0,9.946123295E0
1.444834933E1,-1.044527893E0,1.809437256E0,9.647887115E0,9.871515967E0
1.445838733E1,-9.333091736E-1,1.929637299E0,9.588760071E0,9.825420389E0
1.446842433E1,-9.096583557E-1,2.030826874E0,9.571246490E0,9.826520009E0
1.447846133E1,-8.863069153E-1,2.058818665E0,9.545649719E0,9.805289532E0
1.448849933E1,-8.737330627E-1,2.051483917E0,9.473350067E0,9.732232900E0
1.449853633E1,-8.863069153E-1,2.047891388E0,9.366172943E0,9.628322527E0
1.450857433E1,-9.147477722E-1,2.077529755E0,9.224118347E0,9.499329063E0
1.451861133E1,-9.557624817E-1,2.129322052E0,9.097781067E0,9.392396641E0
1.452864933E1,-9.747729492E-1,2.209405518E0,9.016200714E0,9.333998627E0
1.453868633E1,-9.651928711E-1,2.282752991E0,8.958420868E0,9.294937490E0
1.454872433E1,-9.250762939E-1,2.373314667E0,8.933722229E0,9.289767571E0
1.455876133E1,-8.500822449E-1,2.470911713E0,8.918304291E0,9.293233879E0
1.456879933E1,-7.702981567E-1,2.561473389E0,8.902886353E0,9.296014769E0
1.457883633E1,-6.803352356E-1,2.627186737E0,8.914412384E0,9.318353628E0
1.458887433E1,-5.683680725E-1,2.708617401E0,8.994495850E0,9.410664487E0
1.459891133E1,-5.228627014E-1,2.783162384E0,9.091943207E0,9.522752204E0
1.460894933E1,-5.604345703E-1,2.790048065E0,9.169032898E0,9.600500997E0
1.461898633E1,-6.206094360E-1,2.801125031E0,9.308393097E0,9.740515364E0
1.462902433E1,-7.670050049E-1,2.761457520E0,9.474996643E0,9.898964880E0
1.463906133E1,-9.626481628E-1,2.678529968E0,9.593550110E0,1.000686854E1
1.464909933E1,-1.200503540E0,2.503992920E0,9.687105560E0,1.007726170E1
1.465913633E1,-1.505269775E0,2.327958984E0,9.725126495E0,1.011253259E1
1.466917433E1,-1.888622589E0,2.201172638E0,9.740993500E0,1.016361209E1
1.467921133E1,-2.297422485E0,2.214644623E0,9.656718750E0,1.017030078E1
1.468924933E1,-2.646945648E0,2.245330811E0,9.416618042E0,1.003596169E1
1.469928633E1,-2.891387329E0,1.965113525E0,9.153465271E0,9.798352837E0
1.470932433E1,-3.413651276E0,1.626667328E0,9.130413208E0,9.882484858E0
1.471936133E1,-4.235741730E0,1.278491364E0,9.544302521E0,1.051996952E1
1.472939933E1,-5.083728333E0,8.440946960E-1,1.038375687E1,1.159220412E1
1.473943633E1,-5.637576599E0,2.649490356E-1,1.146376099E1,1.277772608E1
1.474947433E1,-5.820196838E0,-5.577401733E-1,1.238554413E1,1.369625747E1
1.475951133E1,-5.729485474E0,-1.483714600E0,1.293400360E1,1.422381320E1
1.476954933E1,-5.373675385E0,-2.226919098E0,1.325523560E1,1.447538692E1
1.477958633E1,-4.848567352E0,-2.658022614E0,1.347991837E1,1.456989666E1
1.478962433E1,-4.262236633E0,-2.806513824E0,1.363275055E1,1.455661597E1
1.479966133E1,-3.715723114E0,-2.669997711E0,1.374711273E1,1.448856772E1
1.480969833E1,-3.120860138E0,-2.406695251E0,1.381611923E1,1.436722314E1
1.481973633E1,-2.525548096E0,-2.109263763E0,1.371373215E1,1.410297260E1
1.482977433E1,-1.937121735E0,-1.812131653E0,1.331735641E1,1.357896327E1
1.483981133E1,-1.453477478E0,-1.614392853E0,1.261471756E1,1.280038906E1
1.484984833E1,-1.135987701E0,-1.429078217E0,1.177586197E1,1.191652876E1
1.485988633E1,-8.340655518E-1,-1.156944122E0,1.091380463E1,1.100660331E1
1.486992333E1,-5.849835205E-1,-7.890092468E-1,1.006836273E1,1.011615883E1
1.487996133E1,-3.221301270E-1,-3.854484558E-1,9.466165009E0,9.479484074E0
1.488999833E1,1.833686829E-1,4.670288086E-2,9.177864532E0,9.179814955E0
1.490003633E1,9.018745422E-1,3.505709839E-1,9.143136749E0,9.194195306E0
1.491007333E1,1.526226196E0,6.298901367E-1,9.330846405E0,9.475801951E0
1.492011133E1,2.163151703E0,8.523275757E-1,9.643246765E0,9.919571350E0
1.493014833E1,2.631078644E0,1.010249176E0,9.894873505E0,1.028842553E1
1.494018633E1,2.969674530E0,1.017434235E0,9.963730316E0,1.044653345E1
1.495022333E1,3.136577454E0,9.605525208E-1,9.784253540E0,1.031951533E1
1.496026133E1,3.154689789E0,8.898994446E-1,9.504485321E0,1.005381668E1
1.497029833E1,3.107537842E0,8.128097534E-1,9.137149200E0,9.685295382E0
1.498033633E1,2.892135773E0,7.744894409E-1,8.715326385E0,9.215269786E0
1.499037333E1,2.623594208E0,7.746391296E-1,8.321944427E0,8.760026906E0
1.500041133E1,2.315983887E0,8.283773804E-1,7.986941071E0,8.357105845E0
1.501044833E1,1.993554382E0,9.526190186E-1,7.696844330E0,8.007693470E0
1.502048633E1,1.739832001E0,1.022523651E0,7.556585999E0,7.821416877E0
1.503052333E1,1.595382385E0,1.040486298E0,7.520211639E0,7.757669740E0
1.504056133E1,1.514400787E0,1.021775208E0,7.503745880E0,7.722929273E0
1.505059833E1,1.387464752E0,9.915380859E-1,7.481142883E0,7.673050570E0
1.506063633E1,1.283730469E0,9.909393311E-1,7.450007629E0,7.624469710E0
1.507067333E1,1.176852722E0,1.064735870E0,7.500153351E0,7.666221044E0
1.508071133E1,1.067579956E0,1.187480621E0,7.562124481E0,7.728878564E0
1.509074896E1,9.770182800E-1,1.336271210E0,7.619455261E0,7.797197185E0
1.510078696E1,9.321116638E-1,1.452429657E0,7.649393005E0,7.841657823E0
1.511082396E1,9.267228699E-1,1.577120361E0,7.694898376E0,7.909335303E0
1.512086196E1,8.300239563E-1,1.693129120E0,7.701933746E0,7.929401580E0
1.513089896E1,7.433541870E-1,1.771715698E0,7.736362152E0,7.971377002E0
1.514093596E1,6.408174133E-1,1.877395935E0,7.835156708E0,8.082384740E0
1.515097396E1,5.269042969E-1,1.988015900E0,8.020022278E0,8.279528531E0
1.516101096E1,4.215234375E-1,2.027683411E0,8.294252014E0,8.548906275E0
1.517104896E1,3.656895447E-1,2.067051544E0,8.583450623E0,8.836405124E0
1.518108596E1,3.055146790E-1,2.053429871E0,8.876990204E0,9.116516250E0
1.519112396E1,2.041754150E-1,2.019600220E0,9.128317566E0,9.351291581E0
1.520116096E1,7.155120850E-2,2.016007690E0,9.348659363E0,9.563829697E0
1.521119896E1,2.574645996E-2,1.995650024E0,9.536369019E0,9.742977777E0
1.522123596E1,-3.622467041E-2,1.961371307E0,9.598639526E0,9.797049065E0
1.523127396E1,-1.523831177E-1,1.935026093E0,9.662706299E0,9.855731308E0
1.524131096E1,-2.459385681E-1,1.911524963E0,9.732910309E0,9.921892790E0
1.525134896E1,-2.704875183E-1,1.926643524E0,9.764344940E0,9.956281981E0
1.526138596E1,-2.981799316E-1,1.960622864E0,9.777218170E0,9.976319383E0
1.527142396E1,-3.028202820E-1,1.999541931E0,9.781110077E0,9.987991910E0
1.528146096E1,-2.576142883E-1,2.033371582E0,9.825118561E0,1.003662891E1
1.529149896E1,-2.374063110E-1,2.070644073E0,9.936486969E0,1.015271894E1
1.530153596E1,-1.558259583E-1,2.079026642E0,1.008078690E1,1.029411958E1
1.531157396E1,-4.355941772E-2,2.035167847E0,1.020233414E1,1.040343344E1
1.532161096E1,4.954696655E-2,2.048789520E0,1.032702484E1,1.052841087E1
1.533164896E1,9.849517822E-2,2.031425629E0,1.045111679E1,1.064717021E1
1.534168596E1,1.407073975E-1,1.952839050E0,1.049512527E1,1.067619003E1
1.535172396E1,1.167572021E-1,1.882934418E0,1.048090485E1,1.064933992E1
1.536176096E1,7.125183105E-2,1.826801147E0,1.040321640E1,1.056263181E1
1.537179896E1,4.370910645E-2,1.834435272E0,1.029618896E1,1.045842103E1
1.538183596E1,2.200424194E-2,1.814227295E0,1.025547363E1,1.041473208E1
1.539187396E1,3.412902832E-2,1.839075623E0,1.033600616E1,1.049839928E1
1.540191096E1,5.343887329E-2,1.816622314E0,1.041204803E1,1.056947097E1
1.541194896E1,8.891510010E-2,1.771416321E0,1.053778656E1,1.068600801E1
1.542198596E1,1.670526123E-1,1.699416046E0,1.063717987E1,1.077337074E1
1.543202296E1,2.148033142E-1,1.641336823E0,1.069256470E1,1.081993839E1
1.544206096E1,2.420466614E-1,1.575174408E0,1.068807404E1,1.080623374E1
1.545209796E1,2.224374390E-1,1.458417206E0,1.061143341E1,1.071349514E1
1.546213596E1,2.230361938E-1,1.377285919E0,1.048270111E1,1.057514464E1
1.547217296E1,2.703378296E-1,1.309177551E0,1.040845551E1,1.049394942E1
1.548221096E1,3.068618774E-1,1.251996460E0,1.039947418E1,1.047906115E1
1.549224796E1,3.435356140E-1,1.166823578E0,1.044737457E1,1.051794321E1
1.550228596E1,3.763174438E-1,1.106499023E0,1.051278854E1,1.057755538E1
1.551232296E1,3.303630066E-1,1.164877625E0,1.058748322E1,1.065649475E1
1.552236096E1,3.354524231E-1,1.231040039E0,1.052027298E1,1.059736436E1
1.553239796E1,4.162843323E-1,1.216669922E0,1.042432251E1,1.050333652E1
1.554243596E1,6.668632507E-1,1.172212372E0,1.051054321E1,1.059671209E1
1.555247296E1,1.055155792E0,1.044228516E0,1.079734680E1,1.089892035E1
1.556251096E1,1.504371643E0,8.684939575E-1,1.122156464E1,1.135521592E1
1.557254796E1,1.806892548E0,6.783892822E-1,1.172945847E1,1.188718926E1
1.558258596E1,1.996847534E0,4.391867065E-1,1.226399689E1,1.243325801E1
1.559262296E1,1.890418854E0,1.005908203E-1,1.259974869E1,1.274117220E1
1.560266096E1,1.600771179E0,-2.598596191E-1,1.270512955E1,1.280821269E1
1.561269796E1,1.335373077E0,-7.003935242E-1,1.259211456E1,1.268207875E1
1.562273596E1,1.021475830E0,-1.140178986E0,1.229827560E1,1.239318376E1
1.563277296E1,6.562353516E-1,-1.499132538E0,1.191312653E1,1.202500008E1
1.564281096E1,2.739303589E-1,-1.711091766E0,1.146630569E1,1.159650978E1
1.565284796E1,-6.137237549E-2,-1.851200409E0,1.093730576E1,1.109303235E1
1.566288596E1,-3.588038635E-1,-1.889520721E0,1.037612274E1,1.055286463E1
1.567292296E1,-5.601351929E-1,-1.830842743E0,9.779014435E0,9.964680622E0
1.568295996E1,-6.500981140E-1,-1.710343323E0,9.269773407E0,9.448629576E0
1.569299796E1,-6.834786987E-1,-1.563648376E0,8.790470123E0,8.954580078E0
1.570303496E1,-6.135740662E-1,-1.443148956E0,8.303532715E0,8.450314053E0
1.571307296E1,-5.195695496E-1,-1.315614166E0,7.862699432E0,7.988919546E0
1.572310996E1,-3.275189209E-1,-1.159638519E0,7.569459229E0,7.664772870E0
1.573314796E1,-1.335223389E-1,-9.166937256E-1,7.440726929E0,7.498171299E0
1.574318496E1,1.398092651E-1,-6.444099426E-1,7.448810120E0,7.477939757E0
1.575322296E1,5.174739075E-1,-3.939807129E-1,7.539970551E0,7.567969077E0
1.576325996E1,1.005309448E0,-3.091072083E-1,7.719297638E0,7.790619383E0
1.577329796E1,1.593286743E0,-2.757266235E-1,7.925868073E0,8.089126808E0
1.578333496E1,2.163301392E0,-2.495310974E-1,8.214318237E0,8.498068179E0
1.579337296E1,2.650837555E0,-1.889071655E-1,8.533454590E0,8.937699530E0
1.580340996E1,3.022215271E0,-1.234931946E-1,8.939111023E0,9.436987951E0
1.581344796E1,3.221151581E0,-4.116439819E-2,9.467661896E0,1.000070666E1
1.582348496E1,3.253484344E0,-1.362167358E-2,1.005938141E1,1.057244060E1
1.583352296E1,3.052751770E0,-1.749861145E-1,1.046773224E1,1.090519746E1
1.584355996E1,2.612068176E0,-4.876858521E-1,1.055874298E1,1.088796542E1
1.585359796E1,2.057471466E0,-7.890092468E-1,1.033211426E1,1.056448340E1
1.586363496E1,1.434467010E0,-1.000519409E0,9.927805023E0,1.008067693E1
1.587367296E1,7.391629028E-1,-1.106798401E0,9.415121155E0,9.508726038E0
1.588370996E1,1.739382935E-1,-1.018032990E0,8.883875885E0,8.943707086E0
1.589374796E1,-2.541714478E-1,-7.750881958E-1,8.442443848E0,8.481758247E0
1.590378496E1,-4.897814941E-1,-4.481680298E-1,8.137378235E0,8.164414555E0
1.591382296E1,-5.840853882E-1,-7.694000244E-2,8.014783173E0,8.036406212E0
1.592385996E1,-6.144721985E-1,3.044668579E-1,7.986492004E0,8.015879907E0
1.593389696E1,-4.796026611E-1,6.411167908E-1,7.973918152E0,8.014013985E0
1.594393496E1,-2.893482971E-1,9.466314697E-1,8.050259399E0,8.110888359E0
1.595397196E1,-5.343887329E-2,1.240021362E0,8.131390686E0,8.225571298E0
1.596400996E1,1.736389160E-1,1.478625183E0,8.268804932E0,8.401762785E0
1.597404696E1,3.878434753E-1,1.684596863E0,8.371790771E0,8.548401598E0
1.598408496E1,5.725593567E-1,1.837279358E0,8.417296143E0,8.634482845E0
1.599412196E1,7.310797119E-1,1.852996674E0,8.403674469E0,8.636539747E0
1.600415996E1,8.044271851E-1,1.831441498E0,8.388705597E0,8.623900663E0
1.601419696E1,7.632627869E-1,1.793420563E0,8.494685211E0,8.715423354E0
1.602423496E1,7.128176880E-1,1.760638733E0,8.763376465E0,8.966868175E0
1.603427196E1,6.520440674E-1,1.743274841E0,9.127569122E0,9.315400513E0
1.604430996E1,6.063890076E-1,1.665885773E0,9.483828278E0,9.648102499E0
1.605434696E1,5.848338318E-1,1.589993591E0,9.767787781E0,9.913616311E0
1.606438496E1,6.248007202E-1,1.502874756E0,1.000699036E1,1.013848433E1
1.607442196E1,6.198609924E-1,1.461860046E0,1.021879990E1,1.034142803E1
1.608445996E1,5.879772949E-1,1.448537750E0,1.038570282E1,1.050270451E1
1.609449633E1,4.992118835E-1,1.388362885E0,1.042267593E1,1.052658243E1
1.610453433E1,3.954776001E-1,1.350042572E0,1.038555313E1,1.048039748E1
1.611457133E1,3.471281433E-1,1.339414673E0,1.027223877E1,1.036500936E1
1.612460933E1,2.770738220E-1,1.416354675E0,1.014320709E1,1.024536386E1
1.613464633E1,2.814147949E-1,1.484762421E0,1.003138962E1,1.014457941E1
1.614468433E1,3.745211792E-1,1.578467560E0,9.889335022E0,1.002151551E1
1.615472133E1,5.086422729E-1,1.700763245E0,9.799671478E0,9.959160289E0
1.616475933E1,6.884184265E-1,1.833686829E0,9.733658752E0,9.928768303E0
1.617479633E1,9.117539978E-1,1.954934692E0,9.748627625E0,9.984428154E0
1.618483333E1,1.135987701E0,2.069596252E0,9.788145447E0,1.006883747E1
1.619487133E1,1.350341949E0,2.190993805E0,9.800719299E0,1.013301416E1
1.620490833E1,1.562600555E0,2.261197815E0,9.746232605E0,1.012639057E1
1.621494633E1,1.708696747E0,2.348616028E0,9.724228363E0,1.014870726E1
1.622498333E1,1.841171265E0,2.424807587E0,9.747879181E0,1.021228437E1
1.623502133E1,1.964664459E0,2.426903229E0,9.764494629E0,1.025159115E1
1.624505833E1,2.102976837E0,2.438129883E0,9.849667511E0,1.036257396E1
1.625509633E1,2.209405518E0,2.437231750E0,9.983638916E0,1.051164199E1
1.626513333E1,2.286046143E0,2.445764008E0,1.019200562E1,1.072775592E1
1.627517133E1,2.350112915E0,2.407892761E0,1.051817734E1,1.104323471E1
1.628520833E1,2.473157043E0,2.379152527E0,1.096065720E1,1.148533320E1
1.629524633E1,2.571652222E0,2.277962952E0,1.134820129E1,1.185682010E1
1.630528333E1,2.669848022E0,2.089654541E0,1.167931274E1,1.216145924E1
1.631532133E1,2.703078918E0,1.865420837E0,1.189246948E1,1.233763595E1
1.632535833E1,2.660417633E0,1.635199585E0,1.194201645E1,1.234355931E1
1.633539633E1,2.498005371E0,1.488504639E0,1.184067719E1,1.219251053E1
1.634543333E1,2.340233459E0,1.331181793E0,1.163036453E1,1.193792766E1
1.635547133E1,2.224224701E0,1.139879608E0,1.127694946E1,1.155058831E1
1.636550833E1,2.106719055E0,1.010398865E0,1.086320984E1,1.111163800E1
1.637554633E1,1.966760101E0,9.818083191E-1,1.039543259E1,1.062530524E1
1.638558333E1,1.835782471E0,1.169068909E0,9.873917084E0,1.011093754E1
1.639562033E1,1.738634491E0,1.461111603E0,9.402397614E0,9.672785426E0
1.640565833E1,1.733395386E0,1.775757294E0,9.169781342E0,9.499624381E0
1.641569533E1,1.824406128E0,2.033072205E0,9.111702118E0,9.512358056E0
1.642573333E1,2.105072479E0,2.327210541E0,9.145681458E0,9.669060366E0
1.643577033E1,2.536924438E0,2.599045258E0,9.367520142E0,1.004696250E1
1.644580833E1,3.008743286E0,2.908302155E0,9.964478760E0,1.080747864E1
1.645584533E1,3.368594971E0,3.057990875E0,1.094000015E1,1.184830552E1
1.646588333E1,3.476370850E0,2.926264801E0,1.217208801E1,1.299260969E1
1.647592033E1,3.397784271E0,2.498903503E0,1.326212128E1,1.391665612E1
1.648595833E1,3.138224030E0,1.775607605E0,1.392748764E1,1.438666551E1
1.649599533E1,2.572550354E0,9.500743103E-1,1.401026550E1,1.427614079E1
1.650603333E1,1.835034027E0,1.507365417E-1,1.360221405E1,1.372626309E1
1.651607033E1,1.072369995E0,-5.562432861E-1,1.291768753E1,1.297405238E1
1.652610833E1,2.812651062E-1,-1.087937622E0,1.209065735E1,1.214276383E1
1.653614533E1,-3.498225403E-1,-1.365161133E0,1.131781448E1,1.140521659E1
1.654618333E1,-7.575746155E-1,-1.388811951E0,1.071846085E1,1.083457986E1
1.655622033E1,-9.271719360E-1,-1.254690857E0,1.014455429E1,1.026381404E1
1.656625833E1,-9.066645813E-1,-1.046922913E0,9.548044739E0,9.647965930E0
1.657629533E1,-7.740403748E-1,-7.903564453E-1,9.045539703E0,9.112935330E0
1.658633233E1,-4.858895874E-1,-5.278024292E-1,8.613837433E0,8.643660071E0
1.659637033E1,-9.445358276E-2,-2.414479065E-1,8.261470184E0,8.265537380E0
1.660640733E1,3.089575195E-1,3.038681030E-2,8.056396637E0,8.062375883E0
1.661644533E1,7.521858215E-1,3.356021118E-1,8.049960022E0,8.091987929E0
1.662648233E1,1.246008911E0,6.026467896E-1,8.153095551E0,8.269745366E0
1.663652033E1,1.750160522E0,8.104147339E-1,8.368048553E0,8.587436782E0
1.664655733E1,2.108365631E0,9.557624817E-1,8.562344513E0,8.869748086E0
1.665659533E1,2.231709137E0,9.915380859E-1,8.781788177E0,9.115013826E0
1.666663233E1,2.195783844E0,8.548722839E-1,9.075627136E0,9.376528208E0
1.667667033E1,2.102976837E0,5.879772949E-1,9.434730377E0,9.684129603E0
1.668670733E1,1.896406403E0,3.236270142E-1,9.841135254E0,1.002741416E1
1.669674533E1,1.706451416E0,1.219963074E-1,1.017104919E1,1.031392754E1
1.670678233E1,1.458716583E0,-1.751358032E-1,1.035262161E1,1.045635218E1
1.671682033E1,1.183139648E0,-4.540058899E-1,1.040875488E1,1.048561486E1
1.672685733E1,9.211843872E-1,-7.351213074E-1,1.041908340E1,1.048552731E1
1.673689533E1,7.246430969E-1,-9.592053223E-1,1.041579025E1,1.048493534E1
1.674693233E1,5.255570984E-1,-1.035995636E0,1.034289185E1,1.040792530E1
1.675697033E1,3.649411011E-1,-1.020128632E0,1.021715332E1,1.027443752E1
1.676700733E1,2.377056885E-1,-9.056167603E-1,1.006536896E1,1.010882278E1
1.677704533E1,2.242337036E-1,-7.107220459E-1,9.841135254E0,9.869313536E0
1.678708233E1,3.017724609E-1,-4.778063965E-1,9.484127655E0,9.500949581E0
1.679711933E1,4.507127380E-1,-2.785707092E-1,9.044940948E0,9.060447029E0
1.680715733E1,6.532415771E-1,-2.978805542E-2,8.652157745E0,8.676833843E0
1.681719433E1,8.399034119E-1,2.445913696E-1,8.372838593E0,8.418413673E0
1.682723233E1,9.714797974E-1,5.397775269E-1,8.169411621E0,8.244660030E0
1.683726933E1,1.058299255E0,8.000862122E-1,7.996670837E0,8.105978025E0
