Time (s),Acceleration x (m/s^2),Acceleration y (m/s^2),Acceleration z (m/s^2),Absolute acceleration (m/s^2),label,window
140.0047027,3.766766968,-1.697320404,8.632997589,9.570688445,0.0,0.0
140.0147408,3.56872879,-1.727258148,8.710236969,9.570134479,0.0,0.0
140.0247777,3.378624115,-1.595831451,8.932674408,9.682688212,0.0,0.0
140.0348147,3.05858963,-1.470242615,9.316775665,9.915588367,0.0,0.0
140.0448518,2.65847168,-1.353335724,9.737251282,10.18396052,0.0,0.0
140.0548887,2.216440887,-1.213825836,10.14245865,10.45253322,0.0,0.0
140.0649268,1.855691071,-1.034648438,10.38166122,10.59683804,0.0,0.0
140.0749637,1.706900482,-0.8855584717,10.22029678,10.39962448,0.0,0.0
140.0850007,1.718426514,-0.6984475708,9.707612915,9.883246794,0.0,0.0
140.0950377,1.73638916,-0.4962181091,9.13131134,9.308175252,0.0,0.0
140.1050747,1.650018768,-0.2966830444,8.674461365,8.834979498,0.0,0.0
140.1151127,1.491348724,-0.1287322998,8.498128052,8.628955522,0.0,0.0
140.1251498,1.304237823,0.05837860107,8.663234711,8.761054732,0.0,0.0
140.1351867,1.183588715,0.2293231201,8.981173553,9.061729953,0.0,0.0
140.1452237,1.188229065,0.3781137085,9.298214264,9.381452275,0.0,0.0
140.1552617,1.315314789,0.5282514954,9.377698975,9.484215344,0.0,0.0
140.1652987,1.549278259,0.5791456604,9.282646637,9.428849421,0.0,0.0
140.1753357,1.827998657,0.5014572144,9.146429901,9.340782535,0.0,0.0
140.1853727,2.142045593,0.3978726196,9.105115814,9.362146973,0.0,0.0
140.1954097,2.452350311,0.2740800476,9.154662781,9.481402457,0.0,0.0
140.2054478,2.701582031,0.1901046753,9.191486206,9.582176367,0.0,0.0
140.2154843,2.882256317,0.1065783691,9.163494415,9.606684669,0.0,0.0
140.2255213,3.125949554,0.08143066406,9.102271729,9.624424252,0.0,0.0
140.2355583,3.34524353,-0.0001496887207,9.075327759,9.672240083,0.0,0.0
140.2455953,3.576811981,-0.04206253052,9.115893402,9.79259239,0.0,0.0
140.2556333,3.698957977,-0.07649093628,9.123527527,9.845145784,0.0,0.0
140.2656703,3.732039185,-0.1471440125,9.152716827,9.885443498,0.0,0.0
140.2757073,3.81092514,-0.2393522644,9.132808228,9.898920449,0.0,0.0
140.2857443,4.004622345,-0.3903881836,9.000782776,9.859183214,0.0,0.0
140.2957823,4.239034882,-0.62599823,8.767717438,9.758799085,0.0,0.0
140.3058193,4.539460144,-0.8541238403,8.516390076,9.688401615,0.0,0.0
140.3158563,4.800666962,-1.072669373,8.330626373,9.674521106,0.0,0.0
140.3258933,4.963827667,-1.165626068,8.186625824,9.644641602,0.0,0.0
140.3359303,5.097499695,-1.136736145,8.167765045,9.69479541,0.0,0.0
140.3459683,5.010680237,-1.133592682,8.278085632,9.742620312,0.0,0.0
140.3560053,4.804858246,-1.071621552,8.452772369,9.781840126,0.0,0.0
140.3660423,4.580025787,-0.8999285889,8.541687469,9.733803599,0.0,0.0
140.3760793,4.354295197,-0.7164102173,8.515042877,9.590572739,0.0,0.0
140.3861163,4.159550171,-0.5279521179,8.419541473,9.405810421,0.0,0.0
140.3961543,3.967499542,-0.3959266663,8.352480927,9.255363211,0.0,0.0
140.4061913,3.749253387,-0.3132984924,8.416098633,9.218772863,0.0,0.0
140.4162283,3.542233887,-0.2189945984,8.588839417,9.293198699,0.0,0.0
140.4262653,3.339106293,-0.1395098877,8.909622345,9.515800764,0.0,0.0
140.4363033,3.082240448,-0.05748046875,9.291029205,9.789113028,0.0,0.0
140.4463403,2.875819702,0.04805007935,9.584718475,10.00697137,0.0,0.0
140.4563773,2.679577789,0.1082249451,9.746681671,10.10888982,0.0,0.0
140.4664143,2.527044983,0.1157093811,9.8590979,10.17846533,0.0,0.0
140.4764513,2.442171478,0.1422042847,9.977501678,10.27302114,0.0,0.0
140.4864893,2.365231476,0.1463955688,10.02944366,10.30560487,0.0,0.0
140.4965263,2.30041626,0.08232879639,9.986033936,10.24790548,0.0,0.0
140.5065633,2.282752991,-0.02439926147,9.872120819,10.13263668,0.0,0.0
140.5166003,2.363285522,-0.1193019104,9.773925018,10.05628966,0.0,0.0
140.5266373,2.480791168,-0.2052232361,9.676777039,9.991819416,0.0,0.0
140.5366753,2.601290588,-0.3212319946,9.581724701,9.933748082,0.0,0.0
140.5467123,2.694995728,-0.4430786133,9.607770538,9.988422065,0.0,0.0
140.5567493,2.852168884,-0.5851332092,9.735604706,10.16165573,0.0,0.0
140.5667863,3.05514679,-0.7448510742,9.895322571,10.38297326,0.0,0.0
140.5768243,3.281925201,-0.9205856323,9.924362183,10.49340153,0.0,0.0
140.5868613,3.495680695,-1.068478088,9.781708832,10.44237792,0.0,0.0
140.5968983,3.713627472,-1.172062683,9.535321198,10.29985972,0.0,0.0
140.6069353,3.917204132,-1.262923737,9.363179169,10.22783402,0.0,0.0
140.6169723,4.097129974,-1.382375336,9.298363953,10.2546091,0.0,0.0
140.6270103,4.20415741,-1.450034637,9.122180328,10.14848333,0.0,0.0
140.6370473,4.278702393,-1.446891174,8.776549072,9.870592781,0.0,0.0
140.6470843,4.350253601,-1.350940704,8.559051361,9.695726243,0.0,0.0
140.6571213,4.337230682,-1.244811401,8.553213501,9.670500846,0.0,0.0
140.6671593,4.196223907,-1.220112762,8.619226227,9.663748289,0.0,0.0
140.6771963,4.044140167,-1.204994202,8.450527039,9.445553872,0.0,0.0
140.6872333,3.934867401,-1.060544586,8.146209869,9.108714043,0.0,0.0
140.6972703,3.859274597,-0.8828640747,8.030650177,8.953479305,0.0,0.0
140.7073073,3.802243195,-0.7807763672,8.199798431,9.072119893,0.0,0.0
140.7173453,3.722758484,-0.8443940735,8.452173615,9.27422077,0.0,0.0
140.7273823,3.535348206,-0.8996292114,8.41999054,9.176287939,0.0,0.0
140.7374193,3.614832916,-0.8065228271,8.191565552,8.989952295,0.0,0.0
140.7474563,3.771257629,-0.6611750793,8.128247223,8.984872815,0.0,0.0
140.7574933,3.819307709,-0.6198609924,8.182883606,9.051570203,0.0,0.0
140.7675313,3.770359497,-0.6584806824,8.144563293,8.999062106,0.0,0.0
140.7775683,3.715723114,-0.6845265198,8.036937103,8.88073943,0.0,0.0
140.7876053,3.687581635,-0.6861730957,8.120164032,8.944616019,0.0,0.0
140.7976423,3.654350739,-0.7241940308,8.364755402,9.156848216,0.0,0.0
140.8076803,3.585643616,-0.7855664063,8.50187027,9.260440206,0.0,0.0
140.8177173,3.556005249,-0.8090675354,8.490493927,9.24057632,0.0,0.0
140.8277543,3.568429413,-0.7806266785,8.519084473,9.269189109,0.0,0.0
140.8377913,3.582949219,-0.7575746155,8.650211792,9.393487555,0.0,0.0
140.8478283,3.518882446,-0.8262817383,8.714428253,9.434327478,0.0,0.0
140.8578663,3.414998474,-0.8743318176,8.663983154,9.353677074,0.0,0.0
140.8679033,3.350632324,-0.8842112732,8.587641907,9.260462195,0.0,0.0
140.8779403,3.216361542,-0.841999054,8.531957703,9.1568688,0.0,0.0
140.8879773,3.096610565,-0.817300415,8.414452057,9.003331627,0.0,0.0
140.8980143,2.976260834,-0.8324189758,8.362510071,8.915302832,0.0,0.0
140.9080523,2.916535034,-0.8304730225,8.425678711,8.954771007,0.0,0.0
140.9180893,2.880010986,-0.8458909607,8.566685486,9.077339644,0.0,0.0
140.9281263,2.921923828,-0.9083111572,8.6726651,9.196618289,0.0,0.0
140.9381633,2.921025696,-1.024768982,8.760682068,9.291506491,0.0,0.0
140.9482013,2.929258575,-1.133442993,8.838520203,9.380015362,0.0,0.0
140.9582383,2.984194336,-1.179247742,8.901239777,9.461929541,0.0,0.0
140.9682753,2.98958313,-1.192719727,8.953331451,9.514322452,0.0,0.0
140.9783123,2.989882507,-1.191522217,8.99090332,9.549631674,0.0,0.0
140.9883493,2.949017487,-1.218915253,8.958720245,9.510053994,0.0,0.0
140.9983873,2.920277252,-1.267564087,8.869505768,9.423527498,0.0,0.0
141.0084243,2.880460052,-1.239871674,8.756640472,9.301241006,0.0,0.0
141.0184613,2.880010986,-1.171912994,8.727451172,9.264785335,0.0,0.0
141.0284983,2.948867798,-1.129850464,8.807384949,9.356410262,0.0,0.0
141.0385363,3.029999084,-1.046922913,8.87863678,9.439657468,0.0,0.0
141.0485733,3.122506714,-0.9858499146,8.925040283,9.506749828,0.0,0.0
141.0586103,3.238365784,-0.8830137634,9.091194763,9.691055076,0.0,0.0
141.0686473,3.367996216,-0.8000862122,9.395062866,10.01252929,0.0,0.0
141.0786843,3.496878204,-0.7972421265,9.828262024,10.46224099,0.0,0.0
141.0887223,3.573668518,-0.8533753967,10.22448807,10.86459905,0.0,0.0
141.0987593,3.680995331,-0.9199868774,10.46997757,11.13627104,0.0,0.0
141.1087963,3.83442627,-0.9397457886,10.5106929,11.22767172,0.0,0.0
141.1188333,3.980372772,-0.9075627136,10.33510803,11.1122228,0.0,0.0
141.1288703,4.056264954,-0.8767268372,10.02315674,10.8482997,0.0,0.0
141.1389083,3.991599426,-0.7881111145,9.627230072,10.45167661,0.0,0.0
141.1489453,3.880231018,-0.7352709961,9.267977142,10.07433454,0.0,0.0
141.1589823,3.791615295,-0.6936575317,9.013057251,9.802688832,0.0,0.0
141.1690193,3.769910431,-0.6882687378,8.810528412,9.607879548,0.0,0.0
141.1790573,3.848946075,-0.7680528259,8.650361481,9.499107578,0.0,0.0
141.1890943,3.99115036,-0.8490344238,8.448880463,9.382628721,0.0,0.0
141.1991313,4.155059509,-0.8728349304,8.24096283,9.270373709,0.0,0.0
141.2091685,4.289629669,-0.8872050476,8.046217804,9.161314122,0.0,0.0
141.2192055,4.436773682,-0.8833131409,7.933502197,9.132669923,0.0,0.0
141.2292435,4.565505981,-0.8991801453,7.8219841,9.10141775,0.0,0.0
141.2392805,4.68271225,-0.8657995605,7.897876282,9.222464565,0.0,0.0
141.2493175,4.891528015,-0.8451425171,8.165669403,9.556122069,0.0,0.0
141.2593545,4.98568222,-0.8815168762,8.625064087,10.0012914,0.0,0.0
141.2693915,5.091961212,-0.9348060608,9.028175812,10.40720375,0.0,0.0
141.2794295,5.229375458,-0.9318122864,9.232800293,10.65172489,0.0,0.0
141.2894665,5.418432312,-0.9240284729,9.303153992,10.80564258,0.0,0.0
141.2995035,5.544470215,-0.9710307312,9.351802826,10.91513934,0.0,0.0
141.3095405,5.651946716,-0.9813592529,9.321266327,10.94502506,0.0,0.0
141.3195785,5.763315125,-1.025517426,9.248966675,10.94581526,0.0,0.0
141.3296155,5.948779449,-1.075513458,9.313482513,11.10340771,0.0,0.0
141.3396525,6.137985992,-1.166673889,9.334588623,11.23256626,0.0,0.0
141.3496895,6.300697632,-1.26247467,9.205856323,11.22677263,0.0,0.0
141.3597265,6.470744019,-1.357527008,9.033564606,11.19458339,0.0,0.0
141.3697645,6.532116394,-1.48595993,8.82010849,11.07569119,0.0,0.0
141.3798015,6.527476044,-1.606758728,8.637338562,10.94500957,0.0,0.0
141.3898385,6.389912109,-1.690434723,8.553213501,10.80953318,0.0,0.0
141.3998755,6.172264709,-1.737886047,8.479117584,10.63073537,0.0,0.0
141.4099125,5.909561005,-1.727856903,8.403075714,10.41729726,0.0,0.0
141.4199505,5.627547455,-1.669029236,8.373437347,10.22591815,0.0,0.0
141.4299875,5.46782959,-1.625469818,8.373587036,10.13194317,0.0,0.0
141.4400245,5.531297607,-1.664388885,8.34275116,10.14726271,0.0,0.0
141.4500615,5.629493408,-1.729503479,8.30877182,10.18420677,0.0,0.0
141.4600995,5.780978394,-1.800156555,8.234675903,10.22106462,0.0,0.0
141.4701365,5.855673065,-1.761087799,8.192613373,10.22297663,0.0,0.0
141.4801735,5.679938507,-1.635948029,8.230634308,10.13318156,0.0,0.0
141.4902105,5.280718689,-1.542991333,8.467292175,10.097616,0.0,0.0
141.5002475,4.868625641,-1.3748909,8.909921722,10.24600145,0.0,0.0
141.5102855,4.451592865,-1.078357544,9.48592392,10.5338638,0.0,0.0
141.5203225,4.048181763,-0.9316625977,10.09231293,10.91377804,0.0,0.0
141.5303595,3.762875061,-0.8530760193,10.50395691,11.19017775,0.0,0.0
141.5403965,3.78877121,-0.7135661316,10.72729248,11.39906873,0.0,0.0
141.5504345,3.904480591,-0.5792953491,10.67370392,11.38018045,0.0,0.0
141.5604715,4.035757599,-0.5522016907,10.39109161,11.16096103,0.0,0.0
141.5705085,4.126169586,-0.5140310669,9.93992981,10.77458621,0.0,0.0
141.5805455,4.141587524,-0.4023632813,9.482780457,10.35556704,0.0,0.0
141.5905825,4.045187988,-0.300125885,9.152118073,10.01073857,0.0,0.0
141.6006205,3.860771484,-0.2179467773,8.987011414,9.783630788,0.0,0.0
141.6106575,3.717519379,-0.1193019104,8.931177521,9.674715251,0.0,0.0
141.6206945,3.596121826,-0.04864883423,8.89734787,9.596731632,0.0,0.0
141.6307315,3.565585327,-0.06047424316,8.77325592,9.47032604,0.0,0.0
141.6407685,3.668421478,-0.228874054,8.637637939,9.387144861,0.0,0.0
141.6508065,3.815715179,-0.4436773682,8.578959961,9.399738611,0.0,0.0
141.6608435,3.963457947,-0.6054908752,8.459358673,9.361429766,0.0,0.0
141.6708805,4.105512543,-0.6947053528,8.386609955,9.363390161,0.0,0.0
141.6809175,4.149970093,-0.7864645386,8.370892639,9.37617309,0.0,0.0
141.6909555,4.180057526,-0.8985813904,8.359815674,9.389720312,0.0,0.0
141.7009925,4.21119278,-0.978664856,8.355774078,9.408022639,0.0,0.0
141.7110295,4.17481842,-1.046473846,8.473279724,9.503719569,0.0,0.0
141.7210665,4.120631104,-1.071471863,8.702902222,9.688558186,0.0,0.0
141.7311035,3.99818573,-1.121617584,8.972491608,9.886815503,0.0,0.0
141.7411415,3.8764888,-1.196911011,9.258247375,10.10816036,0.0,0.0
141.7511785,3.768263855,-1.326541443,9.542206879,10.34472024,0.0,0.0
141.7612155,3.610491943,-1.487905884,9.798923035,10.54838417,0.0,0.0
141.7712525,3.439397736,-1.613345032,10.00235001,10.69950207,0.0,0.0
141.7812905,3.320544891,-1.651216278,10.15069153,10.80689928,0.0,0.0
141.7913275,3.180735626,-1.529219971,10.31594788,10.90295251,0.0,0.0
141.8013645,3.026107178,-1.357676697,10.54871384,11.05784673,0.0,0.0
141.8114015,2.895279236,-1.173709259,10.75663147,11.2011319,0.0,0.0
141.8214385,2.832110596,-1.065783691,10.89060287,11.30318434,0.0,0.0
141.8314765,2.814896393,-0.9816586304,10.92098969,11.32057026,0.0,0.0
141.8415135,2.868185577,-0.8515791321,10.80363373,11.21027106,0.0,0.0
141.8515505,2.956950989,-0.6786886597,10.56967026,10.99645883,0.0,0.0
141.8615875,3.050656128,-0.5002597046,10.25667114,10.71242575,0.0,0.0
141.8716245,3.150797882,-0.326920166,10.02180954,10.5105219,0.0,0.0
141.8816625,3.242856445,-0.1463955688,9.899064789,10.41772688,0.0,0.0
141.8916995,3.349434814,0.03068618774,9.755662994,10.31467962,0.0,0.0
141.9017365,3.442541199,0.1492396545,9.558522949,10.16064581,0.0,0.0
141.9117735,3.552113342,0.2315684509,9.342671814,9.997832253,0.0,0.0
141.9218115,3.710783386,0.3131488037,9.186696167,9.9127878,0.0,0.0
141.9318485,3.838617554,0.3168910217,9.070388031,9.854305844,0.0,0.0
141.9418855,3.972888336,0.2968327332,8.960217133,9.805990132,0.0,0.0
141.9519225,4.077371063,0.2847079468,8.9301297,9.821060526,0.0,0.0
141.9619595,4.161047058,0.2406994629,8.968000946,9.889251226,0.0,0.0
141.9719975,4.231849823,0.1871109009,9.012608185,9.958447153,0.0,0.0
141.9820345,4.276457062,0.1639091492,8.988208923,9.95504148,0.0,0.0
141.9920715,4.326602783,0.1419049072,8.916208649,9.911528909,0.0,0.0
142.0021085,4.374054108,0.1462458801,8.833131409,9.857887587,0.0,0.0
142.0121465,4.362677765,0.1746867371,8.823251953,9.844452639,0.0,0.0
142.0221835,4.329895935,0.1327738953,8.94644577,9.940046259,0.0,0.0
142.0322205,4.291875,0.1002914429,9.070238342,10.0349127,0.0,0.0
142.0422575,4.227957916,0.1146615601,9.157656555,10.08719232,0.0,0.0
142.0522945,4.127816162,0.1618135071,9.261091461,10.14065407,0.0,0.0
142.0623325,4.052672424,0.1990859985,9.353748779,10.19590139,0.0,0.0
142.0723695,3.980223083,0.08666976929,9.512867889,10.31233935,0.0,0.0
142.0824065,3.897295532,-0.07993377686,9.623637543,10.38314506,0.0,0.0
142.0924435,3.72440506,-0.2730322266,9.607321472,10.30758776,0.0,0.0
142.1024805,3.607647858,-0.4331991577,9.372459869,10.05215343,0.0,0.0
142.1125185,3.373684387,-0.5757028198,9.012608185,9.640554257,0.0,0.0
142.1225555,3.113824768,-0.8213420105,8.716673584,9.292518806,0.0,0.0
142.1325925,2.870879974,-1.125210114,8.517288208,9.058269594,0.0,0.0
142.1426295,2.580483856,-1.467548218,8.4152005,8.923463126,0.0,0.0
142.1526675,2.344275055,-1.68489624,8.376131744,8.859688701,0.0,0.0
142.1627045,2.119592285,-1.765877838,8.408614197,8.849620823,0.0,0.0
142.1727415,1.82889679,-1.793570251,8.584199066,8.958249345,0.0,0.0
142.1827785,1.633553009,-1.821412354,8.729696503,9.066070782,0.0,0.0
142.1928155,1.453926544,-1.852846985,8.846753082,9.154888554,0.0,0.0
142.2028535,1.299747162,-1.853894806,8.962163086,9.243734949,0.0,0.0
142.2128902,1.154100037,-1.888772278,9.17816391,9.4412976,0.0,0.0
142.2229272,1.054706726,-1.88967041,9.424401855,9.669674807,0.0,0.0
142.2329642,0.9857002258,-1.82066391,9.573791199,9.795095708,0.0,0.0
142.2430012,0.8437953186,-1.717378693,9.62513443,9.813490353,0.0,0.0
142.2530392,0.8231382751,-1.517095184,9.688752136,9.841293227,0.0,0.0
142.2630762,0.8629554749,-1.261127472,9.808503113,9.926825674,0.0,0.0
142.2731132,0.8276289368,-1.047371979,9.895921326,9.985550391,0.0,0.0
142.2831502,0.918639679,-0.8882528687,9.929451599,10.01133863,0.0,0.0
142.2931882,1.046922913,-0.7625143433,9.971214752,10.05497883,0.0,0.0
142.3032252,1.187480621,-0.7134164429,9.965526581,10.06135146,0.0,0.0
142.3132622,1.406175842,-0.7167095947,9.923763428,10.04848664,0.0,0.0
142.3232992,1.609602814,-0.7207511902,9.878707123,10.03489701,0.0,0.0
142.3333362,1.786834259,-0.698896637,9.79712677,9.983232248,0.0,0.0
142.3433742,2.006427612,-0.7075785828,9.72228241,9.952346179,0.0,0.0
142.3534112,2.133962402,-0.8065228271,9.683513031,9.948602878,0.0,0.0
142.3634482,2.146985321,-0.9035211182,9.638157349,9.915642867,0.0,0.0
142.3734852,2.212399292,-0.8512797546,9.519005127,9.809732232,0.0,0.0
142.3835232,2.313738556,-0.7668553162,9.453291779,9.762488342,0.0,0.0
142.3935602,2.381996613,-0.7596702576,9.405541077,9.732173946,0.0,0.0
142.4035972,2.435435486,-0.7393125916,9.359287262,9.699184871,0.0,0.0
142.4136342,2.504441986,-0.7152127075,9.303902435,9.66159197,0.0,0.0
142.4236712,2.552641754,-0.7438032532,9.230105896,9.605419203,0.0,0.0
142.4337092,2.612966309,-0.7879614258,9.198970642,9.595287229,0.0,0.0
142.4437462,2.752476196,-0.8223898315,9.255103912,9.690686182,0.0,0.0
142.4537832,2.880010986,-0.8764274597,9.323960724,9.797899364,0.0,0.0
142.4638202,2.959944763,-0.9651928711,9.243577881,9.753799379,0.0,0.0
142.4738572,2.982248383,-0.9836045837,9.056916046,9.585875633,0.0,0.0
142.4838952,2.98135025,-0.9713301086,8.889564056,9.426360942,0.0,0.0
142.4939322,2.935844879,-0.9780661011,8.78852417,9.317400686,0.0,0.0
142.5039692,2.883603516,-0.9873468018,8.712332611,9.230100892,0.0,0.0
142.5140062,2.808010712,-0.9648934937,8.718020782,9.209768182,0.0,0.0
142.5240442,2.690954132,-0.9413923645,8.819210358,9.268544927,0.0,0.0
142.5340812,2.609224091,-0.9376501465,8.934171295,9.354499179,0.0,0.0
142.5441182,2.487676849,-0.9369017029,8.897497559,9.286107027,0.0,0.0
142.5541552,2.321971436,-0.9265731812,8.653504944,9.007399015,0.0,0.0
142.5641922,2.186802521,-0.8620573425,8.430169373,8.751742899,0.0,0.0
142.5742302,2.109413452,-0.7707472229,8.319848785,8.617630777,0.0,0.0
142.5842672,2.005230103,-0.6532415771,8.248596954,8.513931174,0.0,0.0
142.5943042,1.983375549,-0.6005511475,8.382119293,8.634486904,0.0,0.0
142.6043412,2.000440063,-0.6692582703,8.677455139,8.930167679,0.0,0.0
142.6143782,2.12019104,-0.7797285461,8.8412146,9.125254092,0.0,0.0
142.6244162,2.21374649,-0.887504425,8.777297516,9.095564266,0.0,0.0
142.6344532,2.259251862,-0.9714797974,8.759185181,9.097874312,0.0,0.0
142.6444902,2.226919098,-0.9879455566,8.887767792,9.215618341,0.0,0.0
142.6545272,2.153571625,-0.9873468018,9.067394257,9.371785478,0.0,0.0
142.6645652,2.083068237,-0.9946815491,9.135652313,9.422776016,0.0,0.0
142.6746022,2.081421661,-1.034648438,9.113348694,9.405101697,0.0,0.0
142.6846392,2.150428162,-1.056802368,9.084159393,9.39484563,0.0,0.0
142.6946762,2.256856842,-1.068029022,9.140142975,9.475035747,0.0,0.0
142.7047142,2.311493225,-1.128952332,9.274563446,9.624710978,0.0,0.0
142.7147512,2.312990112,-1.208437042,9.566007385,9.915580701,0.0,0.0
142.7247882,2.301164703,-1.265169067,9.839788055,10.184176,0.0,0.0
142.7348252,2.30625412,-1.304836578,10.0276474,10.3718426,0.0,0.0
142.7448622,2.275567932,-1.34674942,10.20023849,10.53740047,0.0,0.0
142.7549002,2.14473999,-1.370699615,10.29259644,10.60265384,0.0,0.0
142.7649372,2.058668976,-1.350341949,10.21939865,10.51178625,0.0,0.0
142.7749742,1.970652008,-1.29765152,10.11356873,10.38516447,0.0,0.0
142.7850112,1.818119202,-1.22160965,10.00429596,10.24128045,0.0,0.0
142.7950482,1.74806488,-1.107846222,9.863289185,10.07807162,0.0,0.0
142.8050862,1.682950287,-0.9777667236,9.682165833,9.875863742,0.0,0.0
142.8151232,1.660796356,-0.8982820129,9.628577271,9.811964909,0.0,0.0
142.8251602,1.676064606,-0.8631051636,9.610315247,9.79348264,0.0,0.0
142.8351972,1.839225311,-0.8318202209,9.464069366,9.676945985,0.0,0.0
142.8452352,1.927691345,-0.7445516968,9.233698425,9.46211064,0.0,0.0
142.8552722,1.983824615,-0.6948550415,9.134604492,9.373333605,0.0,0.0
142.8653092,2.032772827,-0.7180567932,9.1570578,9.407416143,0.0,0.0
142.8753462,2.104174347,-0.785716095,9.110953674,9.38372934,0.0,0.0
142.8853832,2.214644623,-0.7911048889,9.046737213,9.347403487,0.0,0.0
142.8954212,2.329156494,-0.7699987793,9.094188538,9.419242711,0.0,0.0
142.9054582,2.494263153,-0.8138575745,9.197623444,9.56451723,0.0,0.0
142.9154952,2.608325958,-0.9482780457,9.206155701,9.615399021,0.0,0.0
142.9255322,2.625989227,-1.03674408,9.191935272,9.615733553,0.0,0.0
142.9355692,2.638712769,-1.022823029,9.256750488,9.679690162,0.0,0.0
142.9456072,2.601589966,-0.9840536499,9.222022705,9.63235873,0.0,0.0
142.9556442,2.553689575,-1.011746063,8.963959351,9.375368141,0.0,0.0
142.9656812,2.496358795,-1.018781433,8.736731873,9.143314861,0.0,0.0
142.9757182,2.477647705,-0.9163943481,8.646170197,9.040728722,0.0,0.0
142.9857562,2.48647934,-0.8277786255,8.617130585,9.006816112,0.0,0.0
142.9957932,2.414628754,-0.9060658264,8.566685486,8.946479057,0.0,0.0
143.0058302,2.314337311,-1.019679565,8.587941284,8.952577233,0.0,0.0
143.0158672,2.235002289,-1.039438477,8.788224792,9.127352441,0.0,0.0
143.0259042,2.188898163,-1.066232758,9.019344177,9.342199786,0.0,0.0
143.0359422,2.093396759,-1.109043732,8.975036316,9.282433133,0.0,0.0
143.0459792,2.025288391,-1.14901062,8.728498993,9.0337541,0.0,0.0
143.0560162,2.058968353,-1.094823303,8.613687744,8.923766318,0.0,0.0
143.0660532,2.101330261,-1.059347076,8.638536072,8.953329579,0.0,0.0
143.0760912,2.04998703,-1.109941864,8.640032959,8.948999234,0.0,0.0
143.0861282,2.014361115,-1.102607117,8.556506653,8.859300156,0.0,0.0
143.0961652,2.109263763,-1.109941864,8.539741516,8.866123715,0.0,0.0
143.1062022,2.213896179,-1.14317276,8.556506653,8.911901388,0.0,0.0
143.1162392,2.297422485,-1.186283112,8.646170197,9.024504239,0.0,0.0
143.1262772,2.34487381,-1.173858948,8.793314209,9.175987837,0.0,0.0
143.1363142,2.394720154,-1.185085602,9.046737213,9.433057124,0.0,0.0
143.1463512,2.402953033,-1.269060974,9.347162476,9.734174099,0.0,0.0
143.1563882,2.415975952,-1.302441559,9.548942871,9.935572644,0.0,0.0
143.1664252,2.447709961,-1.310375061,9.56780365,9.962491332,0.0,0.0
143.1764632,2.503094788,-1.357676697,9.55957077,9.974676077,0.0,0.0
143.1865002,2.525398407,-1.365161133,9.545799408,9.968128629,0.0,0.0
143.1965372,2.478396149,-1.343905334,9.59699295,10.00253981,0.0,0.0
143.2065742,2.375559998,-1.318907318,9.721833344,10.09439673,0.0,0.0
143.2166122,2.147584076,-1.351389771,9.74219101,10.06720703,0.0,0.0
143.2266492,1.974244537,-1.344653778,9.593400421,9.886307041,0.0,0.0
143.2366862,1.855391693,-1.348096619,9.387279053,9.663376783,0.0,0.0
143.2467232,1.69657196,-1.287921753,9.224268036,9.467006901,0.0,0.0
143.2567602,1.636397095,-1.119971008,9.097631378,9.31123124,0.0,0.0
143.2667982,1.625469818,-0.9490264893,8.931027832,9.127215432,0.0,0.0
143.2768352,1.600322113,-0.8289761353,8.791517944,8.974353462,0.0,0.0
143.2868722,1.592687988,-0.7858657837,8.78268631,8.960458631,0.0,0.0
143.2969092,1.5726297,-0.7035369873,9.00736908,9.170650261,0.0,0.0
143.3069472,1.596729584,-0.6891668701,9.303453369,9.464604637,0.0,0.0
143.3169842,1.731599121,-0.7376660156,9.497899017,9.682596367,0.0,0.0
143.3270212,1.944606171,-0.8009843445,9.541608124,9.770637373,0.0,0.0
143.3370582,2.128872986,-0.8470884705,9.429940338,9.704299761,0.0,0.0
143.3470952,2.217638397,-0.8930429077,9.195827179,9.501509522,0.0,0.0
143.3571332,2.324516144,-0.8786727905,8.926836548,9.266274976,0.0,0.0
143.3671702,2.485880585,-0.8491841125,8.828790436,9.211311334,0.0,0.0
143.3772072,2.656974792,-0.8960366821,8.834328918,9.268644142,0.0,0.0
143.3872442,2.830314331,-0.9181906128,8.919202423,9.402442506,0.0,0.0
143.3972822,3.009791107,-0.9011260986,8.936416626,9.472613835,0.0,0.0
143.4073192,3.137924652,-0.9303153992,8.847651215,9.433609589,0.0,0.0
143.4173562,3.096460876,-1.028960266,8.792865143,9.378768928,0.0,0.0
143.4273932,3.089275818,-1.085392914,8.84345993,9.430190157,0.0,0.0
143.4374302,3.125650177,-1.096918945,9.029373322,9.617822143,0.0,0.0
143.4474682,3.162473602,-1.083746338,9.26124115,9.846132898,0.0,0.0
143.4575052,3.281476135,-1.000968475,9.468410339,10.07079033,0.0,0.0
143.4675422,3.434458008,-0.9551637268,9.526190186,10.1713391,0.0,0.0
143.4775792,3.624113617,-1.037492523,9.612111511,10.32488634,0.0,0.0
143.4876162,3.746708679,-1.207987976,9.687554626,10.45685304,0.0,0.0
143.4976542,3.92094635,-1.36905304,9.72572525,10.57534199,0.0,0.0
143.5076912,4.042044525,-1.49658783,9.721234589,10.63392218,0.0,0.0
143.5177282,4.171525269,-1.539997559,9.696086884,10.66711378,0.0,0.0
143.5277652,4.333937531,-1.527423706,9.685309296,10.72013311,0.0,0.0
143.5378032,4.50248703,-1.53745285,9.691147156,10.7960402,0.0,0.0
143.5478402,4.6183461,-1.590592346,9.686207428,10.84812053,0.0,0.0
143.5578772,4.757257233,-1.685045929,9.744286652,10.97369575,0.0,0.0
143.5679142,4.861440582,-1.781146088,9.947563934,11.2142817,0.0,0.0
143.5779512,4.945715332,-1.833836517,10.14185989,11.43155189,0.0,0.0
143.5879892,5.010530548,-1.876198425,10.22957748,11.54425365,0.0,0.0
143.5980262,4.935985565,-1.935475159,10.18467087,11.48205288,0.0,0.0
143.6080632,4.869823151,-1.942510529,9.958790588,11.2546006,0.0,0.0
143.6181002,4.81728241,-1.826801147,9.721234589,11.00208227,0.0,0.0
143.6281382,4.696932678,-1.677411804,9.507928162,10.73664682,0.0,0.0
143.6381752,4.496050415,-1.551074524,9.336833954,10.47839538,0.0,0.0
143.6482122,4.315974884,-1.400188293,9.226663055,10.28199774,0.0,0.0
143.6582492,4.106710052,-1.273851013,9.207802277,10.16225303,0.0,0.0
143.6682862,3.92678421,-1.226399689,9.267677765,10.13970126,0.0,0.0
143.6783242,3.771706696,-1.201401672,9.367370453,10.16940345,0.0,0.0
143.6883612,3.676205292,-1.149160309,9.429491272,10.18579209,0.0,0.0
143.6983982,3.575315094,-1.067729645,9.457932129,10.16736961,0.0,0.0
143.7084352,3.484454041,-1.017284546,9.531878357,10.1996565,0.0,0.0
143.7184722,3.443738708,-0.9554631042,9.691895599,10.32981541,0.0,0.0
143.7285102,3.401376801,-0.8900491333,9.932295685,10.53622557,0.0,0.0
143.7385472,3.374283142,-0.8819659424,10.10518616,10.69010935,0.0,0.0
143.7485842,3.358865204,-0.8563691711,10.26744873,10.83678214,0.0,0.0
143.7586212,3.337160339,-0.8246351624,10.4907843,11.03962035,0.0,0.0
143.7686592,3.340303802,-0.7670050049,10.71696396,11.25163289,0.0,0.0
143.7786962,3.297642517,-0.7119195557,10.81665665,11.33054882,0.0,0.0
143.7887332,3.321742401,-0.6433621216,10.86021606,11.37506837,0.0,0.0
143.7987702,3.32653244,-0.6370751953,10.82638641,11.34382324,0.0,0.0
143.8088072,3.311114502,-0.5951623535,10.69720505,11.21373681,0.0,0.0
143.8188452,3.379073181,-0.5307962036,10.45575714,11.00103348,0.0,0.0
143.8288822,3.453767853,-0.4028123474,10.11282028,10.69391903,0.0,0.0
143.8389192,3.485202484,-0.307610321,9.748328247,10.35717935,0.0,0.0
143.8489562,3.443439331,-0.2228865051,9.433532867,10.0448243,0.0,0.0
143.8589942,3.401077423,-0.1489402771,9.181157684,9.791995061,0.0,0.0
143.8690312,3.433110809,-0.1110690308,9.021439819,9.65323586,0.0,0.0
143.8790682,3.459456024,-0.1577719116,8.862769775,9.515325326,0.0,0.0
143.8891052,3.431164856,-0.286204834,8.777447205,9.428594005,0.0,0.0
143.8991422,3.414100342,-0.4150868225,8.821755066,9.468460311,0.0,0.0
143.9091802,3.425027618,-0.5165757751,8.850195923,9.503874609,0.0,0.0
143.9192172,3.465892639,-0.5953120422,8.82010849,9.495321058,0.0,0.0
143.9292542,3.542533264,-0.6830296326,8.682544556,9.402268416,0.0,0.0
143.9392912,3.62381424,-0.7607180786,8.556506653,9.323332437,0.0,0.0
143.9493292,3.734733582,-0.7685018921,8.498427429,9.314617483,0.0,0.0
143.9593662,3.725303192,-0.7762857056,8.473279724,9.288539856,0.0,0.0
143.9694032,3.584146729,-0.8313711548,8.405770111,9.175742854,0.0,0.0
143.9794402,3.469036102,-0.9045689392,8.414901123,9.146749005,0.0,0.0
143.9894772,3.319347382,-0.9969268799,8.509205017,9.187954085,0.0,0.0
143.9995152,3.057691498,-1.100810852,8.714128876,9.300392674,0.0,0.0
144.0095522,2.702629852,-1.220262451,8.936117249,9.41527695,0.0,0.0
144.0195892,2.410437469,-1.26247467,9.055419159,9.455404128,0.0,0.0
144.0296262,2.227966919,-1.167122955,9.200467529,9.538061404,0.0,0.0
144.0396632,2.153272247,-0.9948312378,9.297765198,9.595556692,0.0,0.0
144.0497012,2.181114349,-0.7780819702,9.44146637,9.721314652,0.0,0.0
144.0597382,2.229314117,-0.6412664795,9.747579803,10.01979921,0.0,0.0
144.0697752,2.340383148,-0.5665718079,10.20188507,10.48221617,0.0,0.0
144.0798122,2.481689301,-0.565973053,10.6647226,10.96427906,0.0,0.0
144.0898502,2.576891327,-0.5999523926,11.06199646,11.37400886,0.0,0.0
144.0998872,2.629581757,-0.6231541443,11.1715686,11.49377946,0.0,0.0
144.1099242,2.704875183,-0.6280938721,10.9699379,11.31593519,0.0,0.0
144.1199612,2.775677948,-0.5770500183,10.54512131,10.91956767,0.0,0.0
144.1299982,2.885699158,-0.4894821167,10.0661174,10.48301349,0.0,0.0
144.1400362,3.0058992,-0.4212240601,9.668544159,10.13378537,0.0,0.0
144.1500732,3.139720917,-0.3682342529,9.368567963,9.887543151,0.0,0.0
144.1601102,3.260220337,-0.3635939026,9.127120056,9.698740005,0.0,0.0
144.1701472,3.365301819,-0.3650907898,8.995992737,9.611786147,0.0,0.0
144.1801852,3.431763611,-0.3623963928,8.98865799,9.628307488,0.0,0.0
144.1902222,3.521726532,-0.3990701294,9.085057526,9.751927244,0.0,0.0
144.2002592,3.555107117,-0.3945794678,9.238338776,9.906633278,0.0,0.0
144.2102966,3.57696167,-0.3935316467,9.454189911,10.11588992,0.0,0.0
144.2203336,3.558849335,-0.3447331238,9.605824585,10.24968855,0.0,0.0
144.2303716,3.589535522,-0.3052153015,9.592801666,10.24693932,0.0,0.0
144.2404086,3.583248596,-0.3201841736,9.471254425,10.13147811,0.0,0.0
144.2504456,3.592678986,-0.3183879089,9.297765198,9.972820605,0.0,0.0
144.2604826,3.661535797,-0.3080593872,9.126072235,9.838035344,0.0,0.0
144.2705206,3.71033432,-0.2682421875,8.990753632,9.729963284,0.0,0.0
144.2805576,3.784280548,-0.2303709412,8.926686859,9.698432261,0.0,0.0
144.2905946,3.766916656,-0.2219883728,8.978479156,9.739200578,0.0,0.0
144.3006316,3.773652649,-0.2035766602,9.028924255,9.787919645,0.0,0.0
144.3106686,3.839815063,-0.1350192261,9.156459045,9.929911992,0.0,0.0
144.3207066,3.870950317,-0.09490264893,9.350904694,10.12090319,0.0,0.0
144.3307436,3.922592926,-0.1273851013,9.556576996,10.33107575,0.0,0.0
144.3407806,3.91974884,-0.1645079041,9.797426147,10.55372223,0.0,0.0
144.3508176,3.894152069,-0.2059716797,10.07824219,10.80637822,0.0,0.0
144.3608546,3.793860626,-0.2671943665,10.4695285,11.13893165,0.0,0.0
144.3708926,3.610192566,-0.4014651489,10.90841583,11.49731276,0.0,0.0
144.3809296,3.419788513,-0.519868927,11.24671234,11.7666374,0.0,0.0
144.3909666,3.262016602,-0.6102809143,11.45612686,11.92711356,0.0,0.0
144.4010036,3.035687256,-0.7226971436,11.51869675,11.93390393,0.0,0.0
144.4110416,2.797981567,-0.7604187012,11.47992737,11.84042524,0.0,0.0
144.4210786,2.599344635,-0.7578739929,11.22889938,11.55072062,0.0,0.0
144.4311156,2.391277313,-0.6695576477,10.74345886,11.02671406,0.0,0.0
144.4411526,2.11195816,-0.4787045288,10.23840912,10.46491981,0.0,0.0
144.4511896,1.69776947,-0.314046936,9.830058289,9.980535687,0.0,0.0
144.4612276,1.33267868,-0.1306782532,9.457483063,9.551811093,0.0,0.0
144.4712646,1.138233032,0.0002993774414,9.374106445,9.442957491,0.0,0.0
144.4813016,1.101409607,-0.08367599487,9.768386536,9.830639873,0.0,0.0
144.4913386,1.163530426,-0.5575904846,10.18511993,10.26651734,0.0,0.0
144.5013766,1.24496109,-0.9382489014,10.17299515,10.29174764,0.0,0.0
144.5114136,1.331032104,-0.975970459,9.838889923,9.976368063,0.0,0.0
144.5214506,1.375639343,-0.8571176147,9.588460693,9.724485214,0.0,0.0
144.5314876,1.414259033,-0.7661068726,9.488618317,9.623976616,0.0,0.0
144.5415246,1.482966156,-0.7276368713,9.392069092,9.536225976,0.0,0.0
144.5515626,1.486558685,-0.7529342651,9.242380371,9.39139828,0.0,0.0
144.5615996,1.400487671,-0.8095166016,9.129664764,9.271863974,0.0,0.0
144.5716366,1.267713776,-0.8509803772,8.967402191,9.096459085,0.0,0.0
144.5816736,1.304237823,-0.8177494812,8.757538605,8.891807068,0.0,0.0
144.5917116,1.504371643,-0.7566764832,8.486302643,8.651764322,0.0,0.0
144.6017486,1.626068573,-0.7481442261,8.282127228,8.473337607,0.0,0.0
144.6117856,1.635349274,-0.8381071472,8.235424347,8.437950285,0.0,0.0
144.6218226,1.645528107,-0.9222322083,8.236621857,8.449864768,0.0,0.0
144.6318596,1.648072815,-0.9087602234,8.343649292,8.553272628,0.0,0.0
144.6418976,1.538800049,-0.8890013123,8.551417236,8.734126497,0.0,0.0
144.6519346,1.339414673,-0.8726852417,8.788673859,8.932883039,0.0,0.0
144.6619716,1.132095795,-0.7899073792,8.868008881,8.974807857,0.0,0.0
144.6720086,0.9927355957,-0.6200106812,8.759484558,8.837335963,0.0,0.0
144.6820466,0.8744815063,-0.5207670593,8.675209808,8.734711298,0.0,0.0
144.6920836,0.7445516968,-0.4631369019,8.740174713,8.784048442,0.0,0.0
144.7021206,0.65758255,-0.3965254211,8.86920639,8.902385591,0.0,0.0
144.7121576,0.6167175293,-0.348924408,8.970246277,8.998189097,0.0,0.0
144.7221946,0.6432124329,-0.2829116821,9.03311554,9.060404936,0.0,0.0
144.7322326,0.6709048462,-0.2555186462,9.071585541,9.099948753,0.0,0.0
144.7422696,0.6941065979,-0.2754272461,9.09269165,9.123304532,0.0,0.0
144.7523066,0.795894928,-0.2887495422,9.135652313,9.174800718,0.0,0.0
144.7623436,0.9940827942,-0.2809657288,9.119785309,9.178105819,0.0,0.0
144.7723806,1.19346817,-0.2562670898,9.066047058,9.14785485,0.0,0.0
144.7824186,1.354682922,-0.2290237427,9.101523285,9.204637081,0.0,0.0
144.7924556,1.476529541,-0.2011816406,9.176816711,9.297019872,0.0,0.0
144.8024926,1.555415497,-0.2273771667,9.311686249,9.443437856,0.0,0.0
144.8125296,1.52697464,-0.2751278687,9.389374695,9.516706576,0.0,0.0
144.8225676,1.543590088,-0.2832110596,9.38174057,9.512094143,0.0,0.0
144.8326046,1.597328339,-0.239052887,9.289083252,9.428450125,0.0,0.0
144.8426416,1.675914917,-0.2034269714,9.224866791,9.378072331,0.0,0.0
144.8526786,1.729503479,-0.1836680603,9.24836792,9.410484866,0.0,0.0
144.8627156,1.772763519,-0.2032772827,9.297316132,9.467000549,0.0,0.0
144.8727536,1.766027527,-0.2318678284,9.327253876,9.495803325,0.0,0.0
144.8827906,1.780996399,-0.2957849121,9.290280762,9.464077003,0.0,0.0
144.8928276,1.743574219,-0.343535614,9.224268036,9.393891024,0.0,0.0
144.9028646,1.699416046,-0.3674858093,9.110803986,9.275225603,0.0,0.0
144.9129026,1.665436707,-0.3722758484,9.055568848,9.214965865,0.0,0.0
144.9229396,1.682201843,-0.3814068604,9.094188538,9.256324292,0.0,0.0
144.9329766,1.699715424,-0.4372407532,9.167685699,9.334166973,0.0,0.0
144.9430136,1.71184021,-0.5038522339,9.245523834,9.416154998,0.0,0.0
144.9530506,1.765428772,-0.5495072937,9.28818512,9.470431871,0.0,0.0
144.9630886,1.762434998,-0.6164181519,9.311985626,9.497327243,0.0,0.0
144.9731256,1.612446899,-0.6354286194,9.3056987,9.465716181,0.0,0.0
144.9831626,1.421294403,-0.6081852722,9.301208038,9.428808943,0.0,0.0
144.9931996,1.237326965,-0.5381309509,9.323811035,9.420934941,0.0,0.0
40.00361608,-0.5959107971,2.951262817,10.60903839,11.0279988,0.0,1.0
40.01365308,-0.5947132874,3.14870224,10.2267334,10.71699985,0.0,1.0
40.02369108,-0.5066963196,3.380719757,9.984686737,10.55367123,0.0,1.0
40.03372808,-0.3460803223,3.607049103,9.948312378,10.58770485,0.0,1.0
40.04376608,-0.1287322998,3.784430237,10.23945694,10.91718657,0.0,1.0
40.05380308,0.1489402771,3.782334595,10.79944244,11.44360936,0.0,1.0
40.06384008,0.243842926,3.586541748,11.50582352,12.05432353,0.0,1.0
40.07387808,0.0904119873,3.233725433,12.0740419,12.49990569,0.0,1.0
40.08391508,-0.2059716797,2.747087402,12.46353195,12.76434653,0.0,1.0
40.09395208,-0.5646258545,2.149080963,12.62295044,12.81702887,0.0,1.0
40.10399008,-0.8961863708,1.530567169,12.54526199,12.67001911,0.0,1.0
40.11402662,-1.203946381,0.9279203796,12.25142303,12.34535903,0.0,1.0
40.12406363,-1.527124329,0.5304968262,11.8285524,11.93851697,0.0,1.0
40.13410162,-1.798659668,0.3538641357,11.350746,11.49781854,0.0,1.0
40.14413862,-1.913470917,0.2625540161,10.78791641,10.95944552,0.0,1.0
40.15417563,-1.883383484,0.2721340942,10.13811768,10.31516458,0.0,1.0
40.16421362,-1.730251923,0.3363505554,9.493707733,9.655951011,0.0,1.0
40.17425063,-1.578766937,0.475411377,8.87504425,9.026900435,0.0,1.0
40.18428862,-1.494791565,0.6574328613,8.296347656,8.455530984,0.0,1.0
40.19432562,-1.50003067,0.9150471497,7.7927948,7.988432518,0.0,1.0
40.20436262,-1.459914093,1.14437027,7.355853424,7.586139471,0.0,1.0
40.21440062,-1.452878723,1.272653503,7.034621429,7.294957312,0.0,1.0
40.22443763,-1.488804016,1.297052765,7.002887421,7.275940867,0.0,1.0
40.23447462,-1.438957672,1.314566345,7.264393616,7.521309624,0.0,1.0
40.24451263,-1.400787048,1.35378479,7.788902893,8.028819707,0.0,1.0
40.25454962,-1.320853271,1.382225647,8.34035614,8.55667819,0.0,1.0
40.26458662,-1.202299805,1.366358643,8.895850983,9.080122547,0.0,1.0
40.27462463,-1.052910461,1.296304321,9.488318939,9.634169483,0.0,1.0
40.28466162,-1.013692017,1.215472412,9.995614014,10.12014052,0.0,1.0
40.29469862,-1.077309723,1.140927429,10.4351001,10.55242274,0.0,1.0
40.30473662,-1.194515991,1.061742096,10.74091415,10.8591621,0.0,1.0
40.31477362,-1.328936462,0.9316625977,10.86665268,10.9871838,0.0,1.0
40.32481063,-1.504820709,0.8378077698,10.78417419,10.92084339,0.0,1.0
40.33484862,-1.756597137,0.7391629028,10.52775742,10.69886309,0.0,1.0
40.34488562,-1.968706055,0.7330256653,10.20113663,10.41519652,0.0,1.0
40.35492262,-2.057172089,0.8439450073,9.909992065,10.15638434,0.0,1.0
40.36496062,-1.97514267,1.012195129,9.661808167,9.913438586,0.0,1.0
40.37499763,-1.823208618,1.25319397,9.502988434,9.757119143,0.0,1.0
40.38503562,-1.640588379,1.438957672,9.3455159,9.596916007,0.0,1.0
40.39507263,-1.509910126,1.562600555,9.205856323,9.45882338,0.0,1.0
40.40510962,-1.427132263,1.651515656,9.060508575,9.319711696,0.0,1.0
40.41514762,-1.39000946,1.714983673,8.921298065,9.190367483,0.0,1.0
40.42518463,-1.363963623,1.760189667,8.806486816,9.083659751,0.0,1.0
40.43522162,-1.369202728,1.802252197,8.671018524,8.961550722,0.0,1.0
40.44525963,-1.398392029,1.899250488,8.558901672,8.877919268,0.0,1.0
40.45529662,-1.393901367,2.004781036,8.475824432,8.820527639,0.0,1.0
40.46533362,-1.404978333,2.134112091,8.376580811,8.757596965,0.0,1.0
40.47537162,-1.401385803,2.232607269,8.304430847,8.712748653,0.0,1.0
40.48540862,-1.398092651,2.375110931,8.302335205,8.747833152,0.0,1.0
40.49544562,-1.382375336,2.505340118,8.348738708,8.825481783,0.0,1.0
40.50548362,-1.374741211,2.618953857,8.476423187,8.977671344,0.0,1.0
40.51552062,-1.32220047,2.690654755,8.664581909,9.168577684,0.0,1.0
40.52555763,-1.276695099,2.757715302,8.86920639,9.375380849,0.0,1.0
40.53559562,-1.259480896,2.749332733,8.991352386,9.486281692,0.0,1.0
40.54563262,-1.307530975,2.723436584,9.069938965,9.559839795,0.0,1.0
40.55567062,-1.297501831,2.748733978,9.239685974,9.7268107,0.0,1.0
40.56570762,-1.284329224,2.741099854,9.336235199,9.814704155,0.0,1.0
40.57574463,-1.39360199,2.689157867,9.285341034,9.766844662,0.0,1.0
40.58578262,-1.491648102,2.671644287,9.138496399,9.637157967,0.0,1.0
40.59581963,-1.554667053,2.760409698,9.096882935,9.632763387,0.0,1.0
40.60585662,-1.508413239,2.887495422,9.151070251,9.713651582,0.0,1.0
40.61589462,-1.451082458,2.937042389,9.109756165,9.680884034,0.0,1.0
40.62593162,-1.430425415,2.935994568,8.907526703,9.487371234,0.0,1.0
40.63596862,-1.400038605,2.989134064,8.711883545,9.316219482,0.0,1.0
40.64600663,-1.306483154,3.164718933,8.749754791,9.395773149,0.0,1.0
40.65604362,-1.19002533,3.260220337,8.822353821,9.480460109,0.0,1.0
40.66608062,-1.122665405,3.311563568,8.785979462,9.456228951,0.0,1.0
40.67611862,-1.146016846,3.367996216,8.815019073,9.505856847,0.0,1.0
40.68615562,-1.188229065,3.387306061,8.988508301,9.678791874,0.0,1.0
40.69619262,-1.174158325,3.405418396,9.201365662,9.881328467,0.0,1.0
40.70623062,-1.06713089,3.414998474,9.406888275,10.06431965,0.0,1.0
40.71626762,-0.9696835327,3.366798706,9.589807892,10.20980093,0.0,1.0
40.72630463,-0.956660614,3.397634583,9.820178833,10.43527827,0.0,1.0
40.73634262,-0.8547225952,3.376378784,10.00968475,10.59831464,0.0,1.0
40.74637963,-0.826431427,3.337908783,10.08033783,10.65071991,0.0,1.0
40.75641762,-0.9039701843,3.334016876,10.08123596,10.65664812,0.0,1.0
40.76645462,-0.9478289795,3.413800964,10.02914429,10.63654793,0.0,1.0
40.77649162,-1.016685791,3.484603729,9.941277008,10.58324627,0.0,1.0
40.78652962,-1.044378204,3.513942719,9.924960938,10.58032934,0.0,1.0
40.79656663,-1.003513184,3.564238129,10.02225861,10.68440451,0.0,1.0
40.80660362,-0.8619076538,3.613934784,10.21101608,10.86592191,0.0,1.0
40.81664163,-0.7708969116,3.586242371,10.42162811,11.04833693,0.0,1.0
40.82667862,-0.649050293,3.545676727,10.561138,11.15933356,0.0,1.0
40.83671562,-0.5737568665,3.429368591,10.53584061,11.09476017,0.0,1.0
40.84675363,-0.553099823,3.351231079,10.31639694,10.86115625,0.0,1.0
40.85679062,-0.6159690857,3.353177032,10.03707779,10.60028984,0.0,1.0
40.86682762,-0.5944139099,3.437002716,9.893675995,10.49052621,0.0,1.0
40.87686562,-0.3543132019,3.504063263,9.932445374,10.53838072,0.0,1.0
40.88690262,0.04296066284,3.535647583,10.16640884,10.76375948,0.0,1.0
40.89693963,0.3999682617,3.478017426,10.51174072,11.0794076,0.0,1.0
40.90697762,0.6709048462,3.359463959,10.87683151,11.4035773,0.0,1.0
40.91701462,0.8542735291,3.189118195,11.16737732,11.64519533,0.0,1.0
40.92705262,0.8520281982,2.973117371,11.25299927,11.67027727,0.0,1.0
40.93708962,0.7569758606,2.725232849,11.19791382,11.54959655,0.0,1.0
40.94712663,0.6122268677,2.504142609,10.93356354,11.23335941,0.0,1.0
40.95716462,0.3365002441,2.339934082,10.50814819,10.77078003,0.0,1.0
40.96720162,0.03263214111,2.245779877,10.04905289,10.29699257,0.0,1.0
40.97723862,-0.2269281006,2.20207077,9.713450775,9.96251665,0.0,1.0
40.98727662,-0.3668870544,2.154918823,9.45194458,9.70141936,0.0,1.0
40.99731363,-0.4068539429,2.015858002,9.197024689,9.424143289,0.0,1.0
41.00735062,-0.470022583,1.863774261,8.961414642,9.165234755,0.0,1.0
41.01738863,-0.4808001709,1.784738617,8.747808838,8.940951862,0.0,1.0
41.02742562,-0.4659809875,1.774260406,8.570727081,8.764844606,0.0,1.0
41.03746262,-0.4337979126,1.846859436,8.375682678,8.587847852,0.0,1.0
41.04750062,-0.3999682617,1.94700119,8.163424072,8.401921258,0.0,1.0
41.05753762,-0.3573069763,2.098785553,7.988737335,8.26755667,0.0,1.0
41.06757462,-0.2498304749,2.282004547,7.828420715,8.158071519,0.0,1.0
41.07761262,-0.09190887451,2.427352295,7.714956665,8.088327562,0.0,1.0
41.08764962,0.2195933533,2.552641754,7.70148468,8.116468902,0.0,1.0
41.09768663,0.6336323547,2.628983002,7.814200287,8.268903658,0.0,1.0
41.10772462,0.9698332214,2.688559113,8.090375977,8.580391018,0.0,1.0
41.11776171,1.277593231,2.737357635,8.537945251,9.056593201,0.0,1.0
41.12779971,1.470691681,2.719844055,8.970845032,9.488758944,0.0,1.0
41.13783671,1.500629425,2.620750122,9.40284668,9.875917454,0.0,1.0
41.14787371,1.51170639,2.471660156,9.75970459,10.18067747,0.0,1.0
41.15791171,1.392254791,2.232906647,10.01627106,10.35615428,0.0,1.0
41.16794871,1.081501007,1.92005722,10.11162277,10.34896996,0.0,1.0
41.17798571,0.629740448,1.643881531,10.09815079,10.25044237,0.0,1.0
41.18802371,0.2371069336,1.389111328,10.05878265,10.15701523,0.0,1.0
41.19806071,-0.06900650024,1.208586731,9.914931793,9.988559268,0.0,1.0
41.20809771,-0.2818638611,1.093326416,9.694589996,9.760117063,0.0,1.0
41.21813571,-0.4185296631,1.069226532,9.423204346,9.492902222,0.0,1.0
41.22817271,-0.4412823486,1.175056458,9.115893402,9.201901994,0.0,1.0
41.23820971,-0.348924408,1.361418915,8.854536896,8.96537971,0.0,1.0
41.24824771,-0.1649569702,1.579365692,8.705895996,8.849532863,0.0,1.0
41.25828471,0.06421646118,1.782792664,8.560697937,8.744599625,0.0,1.0
41.26832171,0.3083587646,1.983824615,8.416847076,8.652974052,0.0,1.0
41.27835971,0.4938230896,2.183509369,8.241112518,8.539760532,0.0,1.0
41.28839671,0.6273454285,2.369572449,8.024962006,8.390974381,0.0,1.0
41.29843371,0.7485932922,2.482737122,7.836653595,8.254545118,0.0,1.0
41.30847171,0.8219407654,2.581082611,7.76465332,8.223588952,0.0,1.0
41.31850871,0.8515791321,2.733914795,7.765701141,8.276810457,0.0,1.0
41.32854571,0.8228388977,2.83510437,7.873027954,8.408296487,0.0,1.0
41.33858371,0.7640112305,2.856060791,8.060438232,8.585537892,0.0,1.0
41.34862071,0.6676116943,2.757715302,8.273295593,8.746320314,0.0,1.0
41.35865871,0.4891827393,2.583627319,8.487350464,8.885355805,0.0,1.0
41.36869571,0.3053649902,2.429298248,8.694369965,9.032541549,0.0,1.0
41.37873271,0.1215472412,2.371368713,8.92773468,9.238106398,0.0,1.0
41.38877071,-0.05463638306,2.377206573,9.171278229,9.474515321,0.0,1.0
41.39880771,-0.2317181396,2.402803345,9.417665863,9.722118469,0.0,1.0
41.40884471,-0.3412902832,2.403701477,9.666448517,9.96666879,0.0,1.0
41.41888271,-0.3995191956,2.361788635,9.87197113,10.15841893,0.0,1.0
41.42891971,-0.4321513367,2.344125366,10.00968475,10.28958052,0.0,1.0
41.43895671,-0.397124176,2.343975677,10.08677444,10.36315339,0.0,1.0
41.44899471,-0.356408844,2.430346069,10.10144394,10.39580583,0.0,1.0
41.45903171,-0.2809657288,2.579585724,10.04845413,10.37808435,0.0,1.0
41.46906871,-0.1796264648,2.724933472,9.931098175,10.29972034,0.0,1.0
41.47910671,-0.06346801758,2.822530518,9.815239105,10.21320838,0.0,1.0
41.48914371,-0.006735992432,2.922672272,9.716743927,10.14678132,0.0,1.0
41.49918071,-0.01466949463,2.980601807,9.646390228,10.09638781,0.0,1.0
41.50921871,-0.04281097412,2.969973907,9.574240265,10.02440295,0.0,1.0
41.51925571,-0.0845741272,2.982847137,9.553283844,10.0084845,0.0,1.0
41.52929271,-0.123792572,3.020718384,9.617200928,10.08120121,0.0,1.0
41.53933071,-0.1341210938,3.027454376,9.689949646,10.15276281,0.0,1.0
41.54936771,-0.1657054138,3.002905426,9.7409935,10.19469733,0.0,1.0
41.55940471,-0.214354248,2.951562195,9.788744202,10.22629846,0.0,1.0
41.56944271,-0.2640509033,2.949466553,9.873767395,10.30826651,0.0,1.0
41.57947971,-0.2647993469,2.96144165,10.03453308,10.46575891,0.0,1.0
41.58951771,-0.3245251465,2.925965424,10.15263748,10.57083904,0.0,1.0
41.59955471,-0.3965254211,2.87956192,10.25532394,10.65930478,0.0,1.0
41.60959171,-0.4945715332,2.813399506,10.33376083,10.72130732,0.0,1.0
41.61962971,-0.5718109131,2.751128998,10.41983185,10.7920607,0.0,1.0
41.62966671,-0.599203949,2.658621368,10.51982391,10.8671067,0.0,1.0
41.63970371,-0.693507843,2.58587265,10.59915894,10.93205656,0.0,1.0
41.64974171,-0.7789801025,2.487227783,10.66098038,10.97495397,0.0,1.0
41.65977871,-0.8415499878,2.347119141,10.70139633,10.98804159,0.0,1.0
41.66981571,-0.8116122437,2.203867035,10.69166656,10.94657381,0.0,1.0
41.67985371,-0.773890686,2.099833374,10.63987427,10.87267821,0.0,1.0
41.68989071,-0.7447013855,2.027533722,10.56009018,10.77872802,0.0,1.0
41.69992771,-0.7340734863,2.014660492,10.39169037,10.61060552,0.0,1.0
41.70996571,-0.7447013855,2.054926758,10.10189301,10.33564446,0.0,1.0
41.72000271,-0.7946974182,2.101629639,9.7502742,10.00581022,0.0,1.0
41.73003971,-0.7997868347,2.15057785,9.476643219,9.750456952,0.0,1.0
41.74007771,-0.6155200195,2.228565674,9.435329132,9.714463736,0.0,1.0
41.75011471,-0.2785707092,2.270179138,9.744286652,10.00911771,0.0,1.0
41.76015171,0.1228944397,2.145638123,10.24574387,10.46872167,0.0,1.0
41.77018971,0.5140310669,1.955533447,10.6939119,10.88338599,0.0,1.0
41.78022671,0.6930587769,1.704505463,11.06978027,11.22166229,0.0,1.0
41.79026371,0.6670129395,1.346899109,11.17605927,11.27667257,0.0,1.0
41.80030171,0.5712121582,1.030157776,11.09208389,11.15445353,0.0,1.0
41.81033871,0.2942880249,0.7545808411,10.77564194,10.80603798,0.0,1.0
41.82037571,-0.02619552612,0.5698649597,10.24140289,10.25727866,0.0,1.0
41.83041371,-0.3511697388,0.4001179504,9.506580963,9.521475525,0.0,1.0
41.84045071,-0.610430603,0.357456665,8.763825531,8.792328402,0.0,1.0
41.85048871,-0.7241940308,0.3611988831,8.142168274,8.182287323,0.0,1.0
41.86052571,-0.7734416199,0.3369493103,7.719447327,7.765411374,0.0,1.0
41.87056271,-0.712817688,0.2918930054,7.412735138,7.452647369,0.0,1.0
41.88060071,-0.5098397827,0.2773731995,7.220983887,7.244272275,0.0,1.0
41.89063771,-0.305514679,0.2799179077,7.113657074,7.125714716,0.0,1.0
41.90067471,-0.0845741272,0.2634521484,7.008725281,7.014184905,0.0,1.0
41.91071271,0.1038839722,0.2389031982,6.828050995,6.833018879,0.0,1.0
41.92074971,0.1405577087,0.2799179077,6.588998108,6.596438931,0.0,1.0
41.93078671,0.1255888367,0.3706292725,6.367309113,6.379323158,0.0,1.0
41.94082471,0.06316864014,0.486638031,6.206393738,6.225763413,0.0,1.0
41.95086171,-0.08577163696,0.5536985779,6.177204437,6.202563466,0.0,1.0
41.96089871,-0.2757266235,0.6415658569,6.373745728,6.411884787,0.0,1.0
41.97093671,-0.5179229736,0.6866221619,6.830146637,6.884082893,0.0,1.0
41.98097371,-0.7185058594,0.5755531311,7.599846039,7.655401485,0.0,1.0
41.99101071,-0.8138575745,0.416434021,8.421936493,8.471410493,0.0,1.0
42.00104871,-0.9039701843,0.352666626,9.224567413,9.275461164,0.0,1.0
42.01108571,-1.080303497,0.3008743286,9.800569611,9.864519537,0.0,1.0
42.02112271,-1.414259033,0.2463876343,10.19529877,10.29587065,0.0,1.0
42.03116071,-1.707648926,0.2450404358,10.4788092,10.61986591,0.0,1.0
42.04119771,-1.880988464,0.2064207458,10.59212357,10.75982383,0.0,1.0
42.05123471,-2.030228119,0.1755848694,10.737621,10.92927999,0.0,1.0
42.06127271,-2.080673218,0.2342628479,10.97323105,11.17120762,0.0,1.0
42.07130971,-2.071841583,0.3264710999,11.18593872,11.38087589,0.0,1.0
42.08134671,-2.029329987,0.429307251,11.50537445,11.69085652,0.0,1.0
42.09138471,-1.966311035,0.5553451538,11.80490158,11.98042106,0.0,1.0
42.10142171,-1.9282901,0.6475534058,12.06895248,12.23916836,0.0,1.0
42.11145996,-1.966011658,0.6939569092,12.31249603,12.48776748,0.0,1.0
42.12149696,-1.980830841,0.6727011108,12.46667542,12.6409736,0.0,1.0
42.13153396,-1.953587494,0.616867218,12.54630981,12.71247101,0.0,1.0
42.14157196,-1.830393677,0.5737568665,12.60408966,12.74922014,0.0,1.0
42.15160896,-1.735640717,0.5068460083,12.60498779,12.73401189,0.0,1.0
42.16164596,-1.634900208,0.4852908325,12.54630981,12.66168614,0.0,1.0
42.17168396,-1.525926819,0.5074447632,12.46697479,12.57025908,0.0,1.0
42.18172096,-1.391656036,0.556842041,12.42685822,12.51693192,0.0,1.0
42.19175796,-1.194216614,0.5629792786,12.34063751,12.41106092,0.0,1.0
42.20179596,-1.019829254,0.4972659302,12.14065338,12.19355525,0.0,1.0
42.21183296,-0.8637039185,0.4068539429,11.76957504,11.80823489,0.0,1.0
42.22186996,-0.7047344971,0.3968247986,11.35373978,11.38250972,0.0,1.0
42.23190796,-0.6188131714,0.425565033,10.92787537,10.95365215,0.0,1.0
42.24194496,-0.5427713013,0.4498146057,10.53913376,10.5626831,0.0,1.0
42.25198196,-0.4815486145,0.4071533203,10.18302429,10.20253138,0.0,1.0
42.26201996,-0.4287084961,0.3535647583,9.918075256,9.933630545,0.0,1.0
42.27205696,-0.4468208313,0.365539856,9.717342682,9.734475694,0.0,1.0
42.28209396,-0.4872367859,0.4095483398,9.592053223,9.613148004,0.0,1.0
42.29213196,-0.5688171387,0.4462220764,9.626481628,9.653590815,0.0,1.0
42.30216896,-0.6295907593,0.4703219604,9.8498172,9.881117656,0.0,1.0
42.31220596,-0.645308075,0.4453239441,10.14380585,10.17406177,0.0,1.0
42.32224396,-0.6878196716,0.3121009827,10.45620621,10.4834513,0.0,1.0
42.33228096,-0.7348219299,0.1969903564,10.72025711,10.74721736,0.0,1.0
42.34231796,-0.8638536072,0.1083746338,10.86979614,10.90460711,0.0,1.0
42.35235596,-0.9253756714,0.08247848511,10.9394014,10.97878071,0.0,1.0
42.36239296,-1.005608826,0.0007484436035,10.84599564,10.89251445,0.0,1.0
42.37243096,-1.076710968,-0.08262817383,10.6778952,10.73236134,0.0,1.0
42.38246796,-1.123862915,-0.0975970459,10.4430336,10.50378712,0.0,1.0
42.39250496,-1.17595459,-0.03353027344,10.23391846,10.3013145,0.0,1.0
42.40254296,-1.1665242,0.03367996216,10.02749771,10.09517823,0.0,1.0
42.41257996,-1.119521942,0.07035369873,9.862241364,9.925829121,0.0,1.0
42.42261696,-1.034049683,0.09175918579,9.722432098,9.777697295,0.0,1.0
42.43265496,-0.9244775391,0.1320254517,9.673334198,9.71830664,0.0,1.0
42.44269196,-0.7670050049,0.2339634705,9.686955872,9.720090002,0.0,1.0
42.45272896,-0.6219566345,0.3849993896,9.698332214,9.725877972,0.0,1.0
42.46276696,-0.4879852295,0.5366340637,9.669891357,9.69705649,0.0,1.0
42.47280396,-0.3617976379,0.716559906,9.60642334,9.639902749,0.0,1.0
42.48284096,-0.2664459229,0.8425978088,9.436676331,9.477965218,0.0,1.0
42.49287896,-0.2055226135,0.9613009644,9.271270294,9.323239349,0.0,1.0
42.50291596,-0.1730401611,1.074315948,9.156159668,9.220594206,0.0,1.0
42.51295296,-0.1182540894,1.205443268,9.176068268,9.255663475,0.0,1.0
42.52299096,-0.02320175171,1.379381561,9.306746521,9.40844103,0.0,1.0
42.53302796,0.08951385498,1.459764404,9.428144073,9.540902762,0.0,1.0
42.54306496,0.2020797729,1.503323822,9.561516724,9.681085724,0.0,1.0
42.55310296,0.2847079468,1.554667053,9.586814117,9.716226283,0.0,1.0
42.56313996,0.2582130432,1.594633942,9.452992401,9.590025898,0.0,1.0
42.57317696,0.1996847534,1.670226746,9.201066284,9.353563607,0.0,1.0
42.58321496,0.1202000427,1.725611572,8.916657715,9.082894261,0.0,1.0
42.59325196,-0.007634124756,1.78443924,8.733139343,8.913585388,0.0,1.0
42.60328896,-0.09310638428,1.836231537,8.634494476,8.828075097,0.0,1.0
42.61332696,-0.1980381775,1.852547607,8.605005798,8.804389618,0.0,1.0
42.62336396,-0.3032693481,1.8884729,8.550369415,8.761684731,0.0,1.0
42.63340096,-0.3951782227,1.939067688,8.46325058,8.691533795,0.0,1.0
42.64343896,-0.51717453,1.999990997,8.321046295,8.573636622,0.0,1.0
42.65347596,-0.6535409546,2.101030884,8.20698349,8.496824381,0.0,1.0
42.66351296,-0.8024812317,2.232008514,8.14501236,8.483340408,0.0,1.0
42.67355096,-0.9439370728,2.410886536,8.155340881,8.556458144,0.0,1.0
42.68358796,-1.033600616,2.589465179,8.276888123,8.733872975,0.0,1.0
42.69362596,-1.063388672,2.67134491,8.378826141,8.858420096,0.0,1.0
42.70366296,-0.9741741943,2.666704559,8.375982056,8.844060378,0.0,1.0
42.71369996,-0.8927435303,2.703078918,8.348139954,8.820151208,0.0,1.0
42.72373796,-0.7300318909,2.781964874,8.43286377,8.909852214,0.0,1.0
42.73377496,-0.4661306763,2.85740799,8.677006073,9.147266948,0.0,1.0
42.74381196,-0.2056723022,2.960992584,9.083710327,9.556336719,0.0,1.0
42.75384996,0.1119671631,3.09017395,9.79832428,10.2746713,0.0,1.0
42.76388696,0.4379891968,3.199297028,10.69436096,11.17124399,0.0,1.0
42.77392396,0.6613247681,3.180136871,11.65925446,12.10325722,0.0,1.0
42.78396196,0.8116122437,3.01413208,12.63028519,13.01029633,0.0,1.0
42.79399896,0.9524693298,2.657723236,13.40731934,13.70134674,0.0,1.0
42.80403596,0.9919871521,2.200723572,13.82390305,14.03308655,0.0,1.0
42.81407396,0.8405021667,1.737886047,13.86880966,14.00252025,0.0,1.0
42.82411096,0.8388555908,1.231489105,13.6387381,13.71989144,0.0,1.0
42.83414796,0.9071136475,0.7670050049,13.19910233,13.25245087,0.0,1.0
42.84418596,1.019080811,0.4719685364,12.76365784,12.81297161,0.0,1.0
42.85422296,1.227746887,0.374072113,12.33180588,12.39841637,0.0,1.0
42.86425996,1.544637909,0.4426295471,12.03602097,12.14280148,0.0,1.0
42.87429796,1.860331421,0.482895813,11.86133423,12.01604224,0.0,1.0
42.88433496,2.154918823,0.3839515686,11.67182831,11.87529663,0.0,1.0
42.89437196,2.292632446,0.1727407837,11.38951538,11.619254,0.0,1.0
42.90440996,2.26523941,-0.02275268555,10.9805658,11.21180862,0.0,1.0
42.91444696,2.172731781,-0.1715432739,10.48524582,10.70936835,0.0,1.0
42.92448396,2.055675201,-0.2195933533,9.968520355,10.18063946,0.0,1.0
42.93452196,1.896556091,-0.226179657,9.413175201,9.604996076,0.0,1.0
42.94455896,1.717977448,-0.1357676697,8.922944641,9.087839151,0.0,1.0
42.95459596,1.663341064,0.03427871704,8.509803772,8.670907609,0.0,1.0
42.96463396,1.667831726,0.2118095398,8.227341156,8.397360802,0.0,1.0
42.97467096,1.736688538,0.4023632813,8.031847687,8.227305789,0.0,1.0
42.98470796,1.835034027,0.5917195129,7.906857605,8.138542809,0.0,1.0
42.99474596,1.900447998,0.7509883118,7.850874023,8.112453943,0.0,1.0
43.00478296,1.998045044,0.942739563,7.835605774,8.141109244,0.0,1.0
43.01481996,1.997595978,1.080153809,7.876171417,8.197023736,0.0,1.0
43.02485796,1.907034302,1.15365097,7.893235931,8.201881727,0.0,1.0
43.03489496,1.788929901,1.154399414,7.926317139,8.207277964,0.0,1.0
43.04493196,1.695673828,1.043629761,7.939340057,8.185205761,0.0,1.0
43.05496996,1.557511139,0.9240284729,7.946674805,8.150417782,0.0,1.0
43.06500696,1.364562378,0.8544232178,7.984995117,8.14568699,0.0,1.0
43.07504396,1.230291595,0.8746311951,8.082891541,8.222635392,0.0,1.0
43.08508196,1.118474121,0.9177415466,8.257727966,8.383513886,0.0,1.0
43.09511896,1.065035248,0.9554631042,8.498876495,8.61847501,0.0,1.0
43.10515696,1.016985168,1.002914429,8.720415802,8.836614054,0.0,1.0
43.11519433,1.002615051,0.9851014709,8.944799194,9.054562081,0.0,1.0
43.12523133,1.00156723,1.0086026,9.203012238,9.312134576,0.0,1.0
43.13526933,1.045725403,1.023421783,9.445957031,9.558610673,0.0,1.0
43.14530633,1.129401398,1.086141357,9.733658752,9.858973743,0.0,1.0
43.15534333,1.22385498,1.145717468,10.00998413,10.14939761,0.0,1.0
43.16538133,1.303639069,1.221010895,10.25307861,10.40749554,0.0,1.0
43.17541833,1.361718292,1.310375061,10.41264679,10.58274882,0.0,1.0
43.18545533,1.350192261,1.414558411,10.43914169,10.62071909,0.0,1.0
43.19549333,1.31980545,1.554966431,10.35022659,10.54926526,0.0,1.0
43.20553033,1.218316498,1.695224762,10.2041304,10.41548651,0.0,1.0
43.21556733,1.13853241,1.849404144,10.06327332,10.29495127,0.0,1.0
43.22560533,1.059197388,1.979333954,9.893825684,10.14531659,0.0,1.0
43.23564233,0.9886940002,2.064357147,9.691895599,9.958510258,0.0,1.0
43.24567933,0.9300160217,2.127825165,9.461225281,9.742040523,0.0,1.0
43.25571733,0.853225708,2.167941742,9.215286713,9.505234069,0.0,1.0
43.26575433,0.7517367554,2.224673767,8.982820129,9.284683032,0.0,1.0
43.27579133,0.5921685791,2.289339294,8.819509735,9.131018015,0.0,1.0
43.28582933,0.4549040222,2.311343536,8.647966461,8.963067027,0.0,1.0
43.29586633,0.3335064697,2.372715912,8.488248596,8.8199417,0.0,1.0
43.30590333,0.2383044434,2.512375488,8.362360382,8.734866385,0.0,1.0
43.31594133,0.1434017944,2.61161911,8.338709564,8.73929034,0.0,1.0
43.32597833,0.06541397095,2.696941681,8.312214661,8.739032325,0.0,1.0
43.33601533,0.002395019531,2.745889893,8.314459991,8.756149952,0.0,1.0
43.34605333,-0.05358856201,2.831511841,8.432714081,8.895560567,0.0,1.0
43.35609033,-0.1019380188,2.865640869,8.633746033,9.097464455,0.0,1.0
43.36612733,-0.1124162292,2.789149933,8.808881836,9.24058407,0.0,1.0
43.37616533,-0.1936972046,2.678080902,8.990603943,9.382995001,0.0,1.0
43.38620233,-0.2956352234,2.579585724,9.148824921,9.510134601,0.0,1.0
43.39623933,-0.3770658875,2.556533661,9.326954498,9.678332669,0.0,1.0
43.40627733,-0.3951782227,2.559527435,9.510323181,9.856652248,0.0,1.0
43.41631433,-0.4086502075,2.583477631,9.702523499,10.04889615,0.0,1.0
43.42635133,-0.3691323853,2.602039032,9.888586578,10.23186251,0.0,1.0
43.43638933,-0.3436853027,2.618504791,10.0727037,10.41316699,0.0,1.0
43.44642633,-0.3008743286,2.63616806,10.2294278,10.56792792,0.0,1.0
43.45646333,-0.2393522644,2.605182495,10.36265076,10.68778724,0.0,1.0
43.46650133,-0.1760339355,2.583028564,10.50829788,10.82253893,0.0,1.0
43.47653833,-0.08637039185,2.576741638,10.63837738,10.94632955,0.0,1.0
43.48657533,-0.01526824951,2.592758331,10.75468552,11.06281562,0.0,1.0
43.49661333,0.06466552734,2.604134674,10.81261505,11.12197569,0.0,1.0
43.50665033,0.1547781372,2.617307281,10.78686859,11.10093634,0.0,1.0
43.51668833,0.2736309814,2.643353119,10.65888474,10.98517243,0.0,1.0
43.52672533,0.353714447,2.659369812,10.4828508,10.8206988,0.0,1.0
43.53676233,0.467328186,2.690205688,10.30412247,10.65976276,0.0,1.0
43.54680033,0.5510041809,2.776875458,10.12210098,10.51054571,0.0,1.0
43.55683733,0.6563850403,2.834056549,9.948312378,10.3649234,0.0,1.0
43.56687433,0.6857240295,2.894231415,9.848769379,10.28810241,0.0,1.0
43.57691233,0.7990383911,2.949167175,9.774673462,10.24110788,0.0,1.0
43.58694933,0.8295748901,2.979553986,9.723779297,10.20381401,0.0,1.0
43.59698633,0.8747808838,2.992576904,9.663454742,10.15397044,0.0,1.0
43.60702433,0.904119873,2.931354218,9.633666687,10.1102821,0.0,1.0
43.61706133,0.9978250122,2.863994293,9.721833344,10.18391681,0.0,1.0
43.62709833,1.070873108,2.829416199,9.850865021,10.30494575,0.0,1.0
43.63713633,1.167122955,2.82342865,10.04261627,10.49705039,0.0,1.0
43.64717333,1.296903076,2.875520325,10.22688309,10.70232276,0.0,1.0
43.65721033,1.476230164,2.936743011,10.40127045,10.90826026,0.0,1.0
43.66724833,1.584604797,3.011138306,10.47416885,11.01299866,0.0,1.0
43.67728533,1.554217987,3.169508972,10.39004379,10.97334911,0.0,1.0
43.68732233,1.437610474,3.378773804,10.22299118,10.86242998,0.0,1.0
43.69736033,1.380878448,3.523822174,10.04650818,10.73575682,0.0,1.0
43.70739733,1.424288177,3.606600037,9.861193542,10.59619265,0.0,1.0
43.71743433,1.469793549,3.581751709,9.714348907,10.45742861,0.0,1.0
43.72747233,1.449286194,3.506308594,9.642947388,10.36248352,0.0,1.0
43.73750933,1.375339966,3.42712326,9.622589722,10.30684078,0.0,1.0
43.74754633,1.185534668,3.330574036,9.548044739,10.18152121,0.0,1.0
43.75758433,0.9282197571,3.191662903,9.370364227,9.942435806,0.0,1.0
43.76762133,0.597557373,2.985242157,9.199569397,9.690243683,0.0,1.0
43.77765833,0.2448907471,2.791994019,9.10331955,9.525000205,0.0,1.0
43.78769633,-0.05194198608,2.669548645,9.260792084,9.638021475,0.0,1.0
43.79773333,-0.1338217163,2.594853973,9.580377502,9.926470092,0.0,1.0
43.80777033,-0.2442919922,2.477348328,9.727970581,10.04143142,0.0,1.0
43.81780833,-0.3996688843,2.4034021,9.546847229,9.852835576,0.0,1.0
43.82784533,-0.4987628174,2.438578949,9.22142395,9.551444462,0.0,1.0
43.83788233,-0.6059399414,2.562072144,8.869356079,9.251856794,0.0,1.0
43.84792033,-0.7000941467,2.590662689,8.492739258,8.90664275,0.0,1.0
43.85795733,-0.8131091309,2.484383698,8.193810883,8.60068867,0.0,1.0
43.86799433,-0.8217910767,2.418820038,8.021070099,8.418051822,0.0,1.0
43.87803233,-0.9147477722,2.289638672,7.865842896,8.243221045,0.0,1.0
43.88806933,-1.131946106,2.017953644,7.69100647,8.031501691,0.0,1.0
43.89810633,-1.364861755,1.719773712,7.549251251,7.86203941,0.0,1.0
43.90814433,-1.559157715,1.470092926,7.435038757,7.737696512,0.0,1.0
43.91818133,-1.99385376,1.399140472,7.383695526,7.775088842,0.0,1.0
43.92821833,-2.490970001,1.616638184,7.241790619,7.827003381,0.0,1.0
43.93825633,-2.854863281,1.955533447,7.008425903,7.816162042,0.0,1.0
43.94829333,-2.833607483,2.19279007,6.838229828,7.720041893,0.0,1.0
43.95833033,-2.79304184,2.264940033,6.851701813,7.738013557,0.0,1.0
43.96836833,-2.760110321,2.260748749,7.031178589,7.884584088,0.0,1.0
43.97840533,-2.778671722,2.235002289,7.42066864,8.233017359,0.0,1.0
43.98844233,-2.765499115,2.109263763,8.011789398,8.734171302,0.0,1.0
43.99848033,-2.600242767,1.844913483,8.652307434,9.221029885,0.0,1.0
44.00851733,-2.421065369,1.583407288,9.34431839,9.781872128,0.0,1.0
44.01855433,-2.369123383,1.197509766,10.03752686,10.38261627,0.0,1.0
44.02859233,-2.21374649,0.7943980408,10.59077637,10.84879191,0.0,1.0
44.03862933,-2.075434113,0.4487667847,10.94000015,11.14416537,0.0,1.0
44.04866633,-2.051932983,0.2600093079,10.94928085,11.14292533,0.0,1.0
44.05870433,-1.969903564,0.3650907898,10.78626984,10.97075332,0.0,1.0
44.06874133,-1.733844452,0.7186555481,10.57146652,10.73678661,0.0,1.0
44.07877833,-1.438957672,1.158890076,10.25801834,10.42307851,0.0,1.0
44.08881633,-1.137933655,1.593885498,10.00863693,10.19843994,0.0,1.0
44.09885333,-0.8175997925,2.022444305,9.771529999,10.01207016,0.0,1.0
44.10889033,-0.4857398987,2.442470856,9.552685089,9.871950139,0.0,1.0
44.11892737,-0.1981878662,2.816842346,9.300309906,9.719549557,0.0,1.0
44.12896437,-0.06511459351,3.056493988,9.246871033,9.739148798,0.0,1.0
44.13900138,-0.1809736633,3.119512939,9.671088867,10.16336914,0.0,1.0
44.14903937,-0.3643423462,3.107837219,10.00264938,10.48066755,0.0,1.0
44.15907637,-0.576151886,3.048261108,10.26834686,10.72673268,0.0,1.0
44.16911337,-1.130449219,3.032992859,10.61876816,11.101135,0.0,1.0
44.17915137,-1.155147858,2.954256592,10.97173416,11.42107478,0.0,1.0
44.18918838,-0.2145039368,2.628833313,11.45118713,11.75101967,0.0,1.0
44.19922537,0.2430944824,2.189496918,11.83977905,12.04297969,0.0,1.0
44.20926338,0.3236270142,1.95403656,12.10847031,12.26939471,0.0,1.0
44.21930037,-0.3372486877,2.012864227,12.34902008,12.5165353,0.0,1.0
44.22933737,-1.455273743,2.042652283,12.27851669,12.53204781,0.0,1.0
44.23937538,-2.375410309,1.988464966,11.46615601,11.87725981,0.0,1.0
44.24941237,-2.849773865,2.182760925,10.11057495,10.72890405,0.0,1.0
44.25945038,-3.061882782,2.262395325,8.559949493,9.368366672,0.0,1.0
44.26948737,-1.954934692,2.103276215,6.986721039,7.553794501,0.0,1.0
44.27952437,-0.4016148376,1.788480835,5.442532196,5.742918673,0.0,1.0
44.28956237,2.479294281,1.163680115,6.187233582,6.766307038,0.0,1.0
44.29959937,5.362598419,0.2499801636,4.314028931,6.887002069,0.0,1.0
44.30963637,3.827839966,2.239792328,3.913461914,5.914745356,0.0,1.0
44.31967437,4.839586029,3.779640198,8.982820129,10.88109969,0.0,1.0
44.32971137,8.548872528,4.245770874,6.266269226,11.41822761,0.0,1.0
44.33974838,8.944050751,6.476881256,4.172722778,11.80498412,0.0,1.0
44.34978637,3.759282532,5.69251236,2.800226898,7.374155735,0.0,1.0
44.35982338,1.837129669,4.203109589,3.35931427,5.685610609,0.0,1.0
44.36986037,0.6207591248,3.703598328,4.886737976,6.162969293,0.0,1.0
44.37989837,1.266815643,3.543431396,9.648036804,10.3559327,0.0,1.0
44.38993538,1.355281677,5.073699188,8.312364349,9.832324901,0.0,1.0
44.39997237,-1.6416362,4.313579865,11.5909964,12.47610268,0.0,1.0
44.41001038,-3.276386719,1.304537201,20.04436752,20.3522283,0.0,1.0
44.42004737,-4.746329956,-0.3749702454,20.84086121,21.37778629,0.0,1.0
44.43008437,-2.164049835,1.967508545,16.44629974,16.70434006,0.0,1.0
44.44012237,-1.385668488,3.500021667,14.91393631,15.38166848,0.0,1.0
44.45015937,-1.103654938,3.682641907,15.60849197,16.0749783,0.0,1.0
44.46019637,-0.3734733582,3.550167389,15.0321904,15.4502401,0.0,1.0
44.47023437,-0.1898052979,4.023333435,14.10876068,14.67243558,0.0,1.0
44.48027137,-0.6483018494,3.860771484,13.59143646,14.14400922,0.0,1.0
44.49030838,-0.7177574158,3.061733093,12.94882278,13.32521657,0.0,1.0
44.50034637,0.01871109009,2.743644562,12.1179007,12.42463089,0.0,1.0
44.51038337,0.8578660583,2.717748413,11.2432695,11.59884476,0.0,1.0
44.52042037,1.632355499,2.607577515,10.36878799,10.81553556,0.0,1.0
44.53045837,2.340083771,2.370919647,9.442514191,10.01290798,0.0,1.0
44.54049538,2.726580048,2.158211975,8.697663116,9.367041228,0.0,1.0
44.55053237,2.850222931,2.01256485,8.272247772,8.977988151,0.0,1.0
44.56057038,2.765050049,1.922302551,8.062384186,8.737435987,0.0,1.0
44.57060737,2.565065918,1.90374115,7.906707916,8.527591899,0.0,1.0
44.58064437,2.379601593,1.981130219,7.932304688,8.515212172,0.0,1.0
44.59068237,2.152224426,2.057321777,8.430917816,8.9411978,0.0,1.0
44.60071937,1.913171539,2.09564209,8.901090088,9.342448601,0.0,1.0
44.61075637,1.813029785,2.045196991,9.225016479,9.621373955,0.0,1.0
44.62079437,1.89086792,2.039359131,9.294322357,9.701484177,0.0,1.0
44.63083137,2.057172089,2.126477966,9.683213654,10.12514159,0.0,1.0
44.64086838,2.008373566,2.095941467,10.46249313,10.85772985,0.0,1.0
44.65090637,1.990410919,1.846560059,10.77833633,11.11503728,0.0,1.0
44.66094337,2.066901855,1.626517639,10.63104263,10.95156201,0.0,1.0
44.67098037,2.234553223,1.549727325,10.26804749,10.62203757,0.0,1.0
44.68101837,2.486778717,1.533411255,9.792037354,10.2185818,0.0,1.0
44.69105538,2.677332458,1.512005768,9.34776123,9.840473086,0.0,1.0
44.70109237,2.732567596,1.49419281,9.149573364,9.665103754,0.0,1.0
44.71113038,2.781964874,1.575623474,9.067244568,9.614408039,0.0,1.0
44.72116737,2.778222656,1.684447174,8.931925964,9.504482355,0.0,1.0
44.73120437,2.885100403,1.733994141,8.932075653,9.545287606,0.0,1.0
44.74124237,3.034789124,1.774559784,8.978179779,9.641925098,0.0,1.0
44.75127937,2.855462036,1.587448883,8.983418884,9.559051849,0.0,1.0
44.76131637,2.626288605,1.198258209,8.808732147,9.269680502,0.0,1.0
44.77135437,2.70756958,1.004860382,8.55336319,9.027773772,0.0,1.0
44.78139137,2.7789711,0.9485774231,8.295000458,8.799404076,0.0,1.0
44.79142838,2.71580246,0.8304730225,8.041577454,8.528319669,0.0,1.0
44.80146637,2.500400391,0.7182064819,7.86763916,8.286589686,0.0,1.0
44.81150337,2.270628204,0.6258485413,7.88635025,8.230550353,0.0,1.0
44.82154037,2.054178314,0.535436554,8.005203094,8.281884896,0.0,1.0
44.83157837,1.911225586,0.4152365112,8.209079132,8.438849732,0.0,1.0
44.84161538,1.885928192,0.3926335144,8.502469025,8.717962247,0.0,1.0
44.85165237,1.961670685,0.5766009521,8.727151794,8.963470253,0.0,1.0
44.86169038,2.085612946,0.8641529846,8.720116425,9.007606352,0.0,1.0
44.87172737,2.230511627,1.148262177,8.56503891,8.924885415,0.0,1.0
44.88176437,2.085612946,1.243913269,8.534801788,8.873553017,0.0,1.0
44.89180238,1.915716248,1.101259918,8.548124084,8.829109101,0.0,1.0
44.90183937,2.007176056,0.9000782776,8.484805756,8.765319466,0.0,1.0
44.91187637,2.403551788,0.7496411133,8.36490509,8.735597299,0.0,1.0
44.92191437,2.955454102,0.7213499451,8.245303802,8.788634108,0.0,1.0
44.93195137,3.394940186,0.7403604126,8.182883606,8.890069545,0.0,1.0
44.94198838,3.64252533,0.715512085,8.139024811,8.945595184,0.0,1.0
44.95202637,3.606600037,0.7107220459,8.146209869,8.937193345,0.0,1.0
44.96206337,3.33820816,0.7430548096,8.366851044,9.038803049,0.0,1.0
44.97210038,3.088227997,0.9934840393,8.720715179,9.304570701,0.0,1.0
44.98213837,3.170407104,1.282083893,8.942853241,9.574437028,0.0,1.0
44.99217538,3.384911041,1.177451477,8.939260712,9.63090841,0.0,1.0
120.0005426,0.2891986084,1.234033813,8.965755615,9.054901934,0.0,2.0
120.0105796,0.228874054,1.28941864,8.996890869,9.09170111,0.0,2.0
120.0206166,0.2007325745,1.285077667,9.078620911,9.171318107,0.0,2.0
120.0306546,0.2920426941,1.198258209,9.205556946,9.287808695,0.0,2.0
120.0406916,0.466280365,1.110839996,9.385033722,9.462042107,0.0,2.0
120.0507286,0.6427633667,1.006806335,9.69069809,9.764037751,0.0,2.0
120.0607656,0.8583151245,0.9075627136,10.11985565,10.19665893,0.0,2.0
120.0708026,0.9617500305,0.880019989,10.48779053,10.56849793,0.0,2.0
120.0808406,0.960402832,0.9023236084,10.7190596,10.79975927,0.0,2.0
120.0908776,1.006506958,0.9180409241,10.81471069,10.90017536,0.0,2.0
120.1009146,1.093326416,0.9753717041,10.76606186,10.8653026,0.0,2.0
120.1109516,1.155896301,1.051413574,10.5253624,10.64071522,0.0,2.0
120.1209886,1.182840271,1.090033264,10.28451324,10.40953872,0.0,2.0
120.1310266,1.15484848,1.091230774,10.0489032,10.17373654,0.0,2.0
120.1410636,1.091829529,1.048719177,9.733059998,9.850094444,0.0,2.0
120.1511006,1.008153534,1.046324158,9.410331116,9.521843283,0.0,2.0
120.1611376,0.9346563721,1.111139374,9.106463013,9.221490218,0.0,2.0
120.1711746,0.83661026,1.239572296,8.828041992,8.953813803,0.0,2.0
120.1812126,0.7789801025,1.367705841,8.779991913,8.919960048,0.0,2.0
120.1912497,0.8002359009,1.464255066,8.948990479,9.103232996,0.0,2.0
120.2012867,0.725690918,1.463057556,9.293274536,9.43568314,0.0,2.0
120.2113238,0.7158114624,1.357377319,9.644294586,9.765617098,0.0,2.0
120.2213617,0.7168592834,1.204694824,9.966424713,10.0645317,0.0,2.0
120.2313988,0.7176077271,0.9984237671,10.28196854,10.35522515,0.0,2.0
120.2414357,0.7444020081,0.7143145752,10.62969543,10.67964441,0.0,2.0
120.2514727,0.6858737183,0.5155279541,10.88970474,10.92345464,0.0,2.0
120.2615098,0.7376660156,0.3465293884,10.84030746,10.87090151,0.0,2.0
120.2715477,0.8840615845,0.2020797729,10.8425528,10.8804114,0.0,2.0
120.2815847,0.9315129089,0.07708969116,10.86979614,10.90990959,0.0,2.0
120.2916218,0.9746232605,-0.07753875732,10.69630692,10.74089775,0.0,2.0
120.3016587,1.059496765,-0.1460961914,10.53958282,10.59370962,0.0,2.0
120.3116957,1.074765015,-0.04954696655,10.46758255,10.5227306,0.0,2.0
120.3217337,0.9874964905,0.1517843628,10.54676788,10.59398417,0.0,2.0
120.3317707,0.830173645,0.3281176758,10.59631485,10.63384869,0.0,2.0
120.3418078,0.6219566345,0.4867877197,10.52865555,10.55823754,0.0,2.0
120.3518447,0.2978805542,0.5378315735,10.33795212,10.35621792,0.0,2.0
120.3618827,0.2534230042,0.5740562439,10.07285339,10.09238026,0.0,2.0
120.3719197,0.3954776001,0.5821394348,9.956096191,9.980938845,0.0,2.0
120.3819567,0.6038442993,0.5664221191,9.844278717,9.879032615,0.0,2.0
120.3919937,0.7981402588,0.5505551147,9.726024628,9.774236229,0.0,2.0
120.4020308,1.048719177,-0.2210902405,9.485175476,9.545535429,0.0,2.0
120.4120687,1.651964722,-0.3769161987,9.18400177,9.339001112,0.0,2.0
120.4221058,2.232607269,0.3721261597,8.783434753,9.070377013,0.0,2.0
120.4321427,2.474504242,0.8764274597,9.327852631,9.690207997,0.0,2.0
120.4421797,2.317480774,1.001118164,9.270521851,9.608097111,0.0,2.0
120.4522168,2.01256485,0.9014254761,9.346414032,9.60304329,0.0,2.0
120.4622547,1.842368774,0.7177574158,9.437724152,9.642620783,0.0,2.0
120.4722917,1.948797455,0.6668632507,9.678124237,9.894877809,0.0,2.0
120.4823288,2.214944,0.7191046143,9.762249298,10.03616459,0.0,2.0
120.4923657,2.362836456,0.8231382751,9.852960663,10.16569656,0.0,2.0
120.5024027,2.331701202,0.8913963318,9.776918793,10.09056782,0.0,2.0
120.5124407,2.183808746,0.8887019348,9.602232056,9.887450239,0.0,2.0
120.5224777,1.995650024,0.8873547363,9.339228973,9.5912051,0.0,2.0
120.5325148,1.81826889,0.9321116638,8.93357254,9.164259503,0.0,2.0
120.5425517,1.795067139,0.9674382019,8.366401978,8.611323055,0.0,2.0
120.5525887,1.821562042,0.8554710388,7.888595581,8.141244328,0.0,2.0
120.5626268,1.822759552,0.6496490479,7.568411407,7.811872215,0.0,2.0
120.5726637,1.838776245,0.4203259277,7.204518127,7.44733868,0.0,2.0
120.5827007,2.017055511,0.1872605896,6.95738205,7.246291772,0.0,2.0
120.5927378,2.264341278,0.01886077881,6.926546173,7.287292984,0.0,2.0
120.6027747,2.524500275,-0.1146615601,7.10243042,7.53861836,0.0,2.0
120.6128128,2.754871216,-0.2884501648,7.409142609,7.909988186,0.0,2.0
120.6228497,2.98718811,-0.5057981873,7.86883667,8.431946107,0.0,2.0
120.6328867,3.224444733,-0.7131170654,8.392148438,9.018521785,0.0,2.0
120.6429237,3.364553375,-0.8768765259,8.936117249,9.588708116,0.0,2.0
120.6529607,3.485352173,-1.039438477,9.414223022,10.09235885,0.0,2.0
120.6629987,3.55241272,-1.180744629,9.573791199,10.2796533,0.0,2.0
120.6730358,3.664230194,-1.217568054,9.618548126,10.36462845,0.0,2.0
120.6830727,3.606899414,-1.13029953,9.593699799,10.31146819,0.0,2.0
120.6931097,3.219505005,-0.9979747009,9.372160492,9.959847301,0.0,2.0
120.7031477,2.460134125,-0.9089099121,8.999734955,9.374092297,0.0,2.0
120.7131847,1.737287292,-0.9421408081,8.867709503,9.085266549,0.0,2.0
120.7232217,1.043180695,-1.012793884,9.275162201,9.388429649,0.0,2.0
120.7332587,0.5450166321,-1.052012329,10.14769775,10.2166307,0.0,2.0
120.7432957,0.429307251,-0.8358618164,11.34086655,11.37972863,0.0,2.0
120.7533338,0.5767506409,-0.5309458923,12.40635086,12.43109354,0.0,2.0
120.7633707,0.5631289673,-0.2433938599,12.78581177,12.80052098,0.0,2.0
120.7734077,0.492026825,-0.06107299805,12.66142044,12.67112418,0.0,2.0
120.7834448,0.3833528137,-0.04535568237,12.2226828,12.22877718,0.0,2.0
120.7934817,0.1067280579,-0.06750961304,11.64832718,11.64901174,0.0,2.0
120.8035198,-0.3007246399,-0.07200027466,11.21842117,11.22268208,0.0,2.0
120.8135567,-0.6318360901,-0.003442840576,10.77264816,10.79116199,0.0,2.0
120.8235937,-0.830173645,0.08756790161,10.53015244,10.56318923,0.0,2.0
120.8336307,-1.088536377,0.2836601257,10.51024384,10.57026963,0.0,2.0
120.8436677,-1.114731903,0.4595443726,10.77414505,10.84140258,0.0,2.0
120.8537057,-1.079255676,0.5403762817,11.10346024,11.16886872,0.0,2.0
120.8637428,-1.251098328,0.2671943665,11.27290787,11.34526737,0.0,2.0
120.8737797,-1.115929413,-0.0520916748,11.4529834,11.50733856,0.0,2.0
120.8838167,-0.8078700256,0.4230203247,11.50223099,11.53832388,0.0,2.0
120.8938547,-0.9870474243,0.6033952332,11.56524994,11.62296669,0.0,2.0
120.9038917,-0.8629554749,0.4848417664,11.80909286,11.8505037,0.0,2.0
120.9139287,-0.7337741089,0.3903881836,11.67107986,11.70063813,0.0,2.0
120.9239657,-0.6174659729,0.3580554199,11.40358612,11.42590234,0.0,2.0
120.9340027,-0.4131408691,0.324225769,11.34251312,11.35466475,0.0,2.0
120.9440408,-0.273331604,0.3144960022,11.15240845,11.16018961,0.0,2.0
120.9540777,-0.1330732727,0.2674937439,10.85078568,10.85489803,0.0,2.0
120.9641147,-0.1856140137,0.1276844788,10.54961197,10.55201728,0.0,2.0
120.9741518,-0.3400927734,-0.1399589539,10.37732025,10.3838349,0.0,2.0
120.9841887,-0.5269042969,-0.3915856934,10.23017624,10.25121814,0.0,2.0
120.9942267,-0.5941145325,-0.4935237122,10.09560608,10.1251074,0.0,2.0
121.0042637,-0.5921685791,-0.5113366699,10.070159,10.10050647,0.0,2.0
121.0143007,-0.6788383484,-0.5554948425,10.15922379,10.19702035,0.0,2.0
121.0243377,-0.8018824768,-0.6071374512,10.36564453,10.41432753,0.0,2.0
121.0343748,-0.781973877,-0.6089337158,10.58164536,10.6279585,0.0,2.0
121.0444127,-0.8491841125,-0.6134243774,10.89584198,10.94608494,0.0,2.0
121.0544498,-1.082848206,-0.6456074524,10.97338074,11.04556264,0.0,2.0
121.0644867,-1.183439026,-0.7758366394,10.89150101,10.9830435,0.0,2.0
121.0745237,-1.291963348,-0.8656498718,10.61891785,10.73219154,0.0,2.0
121.0845608,-1.444496155,-0.8550219727,10.34887939,10.48412783,0.0,2.0
121.0945987,-1.510209503,-0.8180488586,10.16955231,10.31357023,0.0,2.0
121.1046357,-1.712438965,-0.7593708801,10.16446289,10.33563724,0.0,2.0
121.1146727,-1.895657959,-0.6325845337,10.2253862,10.41883896,0.0,2.0
121.1247097,-1.997745667,-0.4796026611,10.16895355,10.37442157,0.0,2.0
121.1347467,-2.034419403,-0.3685336304,10.12075378,10.32977911,0.0,2.0
121.1447847,-1.939666443,-0.3146456909,10.06072861,10.25083255,0.0,2.0
121.1548217,-1.74462204,-0.2983296204,9.835896149,9.993876108,0.0,2.0
121.1648588,-1.576371918,-0.2613565063,9.574090576,9.706516677,0.0,2.0
121.1748957,-1.608554993,-0.2134561157,9.412576447,9.551419164,0.0,2.0
121.1849337,-1.726060638,-0.08741821289,9.306746521,9.465857493,0.0,2.0
121.1949706,-1.810634766,0.04296066284,9.313033447,9.487509466,0.0,2.0
121.2050076,-1.711241455,0.07783813477,9.41571991,9.57027625,0.0,2.0
121.2150446,-1.605561218,0.05328918457,9.540709991,9.675009752,0.0,2.0
121.2250816,-1.53041748,0.08711883545,9.588460693,9.710218629,0.0,2.0
121.2351196,-1.351539459,0.01017883301,9.533973999,9.62930022,0.0,2.0
121.2451566,-1.24376358,-0.1652563477,9.322763214,9.40681516,0.0,2.0
121.2551936,-1.16427887,-0.3031196594,9.146130524,9.22491899,0.0,2.0
121.2652306,-1.086440735,-0.2769241333,9.220825195,9.28873822,0.0,2.0
121.2752676,-1.077459412,-0.08337661743,9.558223572,9.619122013,0.0,2.0
121.2853056,-1.249152374,0.07649093628,9.758357391,9.838280922,0.0,2.0
121.2953426,-1.442849579,0.1514849854,9.812095642,9.918769253,0.0,2.0
121.3053796,-1.455273743,0.1453477478,9.783205719,9.891919014,0.0,2.0
121.3154166,-1.327140198,0.08741821289,9.647587738,9.738834233,0.0,2.0
121.3254536,-1.190773773,-0.03951782227,9.572294312,9.646155826,0.0,2.0
121.3354916,-1.077309723,-0.1898052979,9.563462677,9.625821558,0.0,2.0
121.3455286,-0.7620652771,-0.2634521484,9.734107819,9.767446214,0.0,2.0
121.3555656,-0.4843927002,-0.2544708252,9.823621674,9.838848229,0.0,2.0
121.3656026,-0.393381958,-0.2734812927,9.716594238,9.728398891,0.0,2.0
121.3756396,-0.2953358459,-0.2264790344,9.620793457,9.627989549,0.0,2.0
121.3856776,-0.1775308228,-0.2116598511,9.55373291,9.557726173,0.0,2.0
121.3957146,-0.1115180969,-0.2697390747,9.57483902,9.57928691,0.0,2.0
121.4057516,-0.07050338745,-0.4412823486,9.713600464,9.723874475,0.0,2.0
121.4157886,-0.0130229187,-0.7596702576,9.849368134,9.878629517,0.0,2.0
121.4258256,0.06391708374,-1.082099762,9.823022919,9.882651696,0.0,2.0
121.4358636,0.2912942505,-1.310375061,9.686207428,9.778780572,0.0,2.0
121.4459006,0.502205658,-1.453776855,9.586215363,9.708820868,0.0,2.0
121.4559376,0.583636322,-1.570683746,9.397757263,9.545968802,0.0,2.0
121.4659746,0.642613678,-1.776505737,9.06694519,9.261664001,0.0,2.0
121.4760126,1.167572021,-2.622546387,9.263785858,9.698386588,0.0,2.0
121.4860496,0.5613327026,-2.905009003,8.418194275,8.923013312,0.0,2.0
121.4960866,-0.4926255798,-2.553539886,8.044271851,8.454203423,0.0,2.0
121.5061236,-0.7999365234,-2.084565125,8.235424347,8.532732527,0.0,2.0
121.5161606,-0.8915460205,-1.621128845,8.605604553,8.802235101,0.0,2.0
121.5261986,-0.4258644104,-1.269959106,9.368418274,9.463689428,0.0,2.0
121.5362356,0.07649093628,-1.088686066,9.954599304,10.01424663,0.0,2.0
121.5462726,0.3394940186,-1.137783966,10.26684998,10.33528021,0.0,2.0
121.5563096,0.2992277527,-1.080602875,10.54661819,10.60605465,0.0,2.0
121.5663466,0.03996688843,-0.7346722412,10.90227859,10.92707734,0.0,2.0
121.5763846,-0.4568499756,-0.3365002441,11.14956436,11.16399255,0.0,2.0
121.5864216,-1.20050354,0.02769241333,11.29566055,11.35930997,0.0,2.0
121.5964586,-2.081421661,0.4176315308,11.3839769,11.58022721,0.0,2.0
121.6064956,-2.955304413,0.8605604553,11.49878815,11.90363463,0.0,2.0
121.6165326,-3.832180939,1.199605408,11.41077118,12.09670876,0.0,2.0
121.6265706,-4.607718201,1.364263,11.24880798,12.23225088,0.0,2.0
121.6366076,-5.156327362,1.469793549,11.13878677,12.36206195,0.0,2.0
121.6466446,-5.372777252,1.516496429,11.00810852,12.34280965,0.0,2.0
121.6566816,-5.201533356,1.493444366,10.75423645,12.03909992,0.0,2.0
121.6667186,-4.67328186,1.398092651,10.34289185,11.43545531,0.0,2.0
121.6767566,-4.017046509,1.178648987,9.899064789,10.74790025,0.0,2.0
121.6867936,-3.430266724,0.8208929443,9.480535126,10.11539131,0.0,2.0
121.6968306,-2.811303864,0.4076023865,9.134305115,9.565829763,0.0,2.0
121.7068676,-2.159259796,0.009729766846,8.886869659,9.14543328,0.0,2.0
121.7169056,-1.699266357,-0.2561174011,8.646319885,8.815438153,0.0,2.0
121.7269426,-1.536105652,-0.4168830872,8.549620972,8.696518317,0.0,2.0
121.7369796,-1.634750519,-0.5025050354,8.643924866,8.811490093,0.0,2.0
121.7470166,-2.02424057,-0.4655319214,8.920250244,9.158882807,0.0,2.0
121.7570536,-2.451751556,-0.2742297363,9.256750488,9.57985998,0.0,2.0
121.7670916,-2.663411407,-0.0896635437,9.369316406,9.740938856,0.0,2.0
121.7771286,-2.584974518,-0.0636177063,9.392218781,9.741658693,0.0,2.0
121.7871656,-2.398312683,-0.1270857239,9.430539093,9.731552913,0.0,2.0
121.7972026,-2.192939758,-0.2154020691,9.430988159,9.684984279,0.0,2.0
121.8072396,-1.875300293,-0.3376977539,9.455387421,9.645472629,0.0,2.0
121.8172776,-1.697021027,-0.4909790039,9.586963806,9.748375032,0.0,2.0
121.8273146,-1.689237213,-0.6728507996,9.648635559,9.818473339,0.0,2.0
121.8373516,-1.775457916,-0.7866142273,9.601333923,9.795745294,0.0,2.0
121.8473886,-1.91661438,-0.8072712708,9.440568237,9.666924342,0.0,2.0
121.8574256,-2.093546448,-0.749790802,9.334588623,9.595815116,0.0,2.0
121.8674636,-2.256557465,-0.6318360901,9.336534576,9.626117926,0.0,2.0
121.8775006,-2.396217041,-0.4670288086,9.497300262,9.806053451,0.0,2.0
121.8875376,-2.432292023,-0.2694396973,9.707912292,10.01160343,0.0,2.0
121.8975746,-2.378254395,-0.1609153748,9.743388519,10.03073315,0.0,2.0
121.9076126,-2.323168945,-0.1899549866,9.686506805,9.963012142,0.0,2.0
121.9176496,-2.251917114,-0.2619552612,9.567504272,9.832440656,0.0,2.0
121.9276866,-2.130968628,-0.348924408,9.349108429,9.595238608,0.0,2.0
121.9377236,-2.025737457,-0.4427792358,9.216484222,9.446864407,0.0,2.0
121.9477606,-1.877845001,-0.4740641785,9.080417175,9.284665571,0.0,2.0
121.9577986,-1.744322662,-0.4740641785,8.90902359,9.090550023,0.0,2.0
121.9678356,-1.772913208,-0.5195695496,8.735085297,8.928319489,0.0,2.0
121.9778726,-1.9282901,-0.4947212219,8.688083038,8.913239516,0.0,2.0
121.9879096,-2.018851776,-0.4074526978,8.717871094,8.957848883,0.0,2.0
121.9979466,-1.992506561,-0.3393443298,8.941506042,9.167102447,0.0,2.0
122.0079846,-2.133962402,-0.3724255371,9.289682007,9.538903926,0.0,2.0
122.0180216,-2.334245911,-0.4236190796,9.539961548,9.830514912,0.0,2.0
122.0280586,-2.414778442,-0.4074526978,9.690997467,9.995629271,0.0,2.0
122.0380956,-2.372117157,-0.4120930481,9.753417664,10.04618916,0.0,2.0
122.0481326,-2.312690735,-0.4947212219,9.719138947,10.00274709,0.0,2.0
122.0581706,-2.283800812,-0.5855822754,9.710157623,9.992287717,0.0,2.0
122.0682076,-2.232008514,-0.606688385,9.67662735,9.949223571,0.0,2.0
122.0782446,-2.157164154,-0.5903723145,9.562115479,9.820180705,0.0,2.0
122.0882816,-2.132465515,-0.6370751953,9.483229523,9.740888879,0.0,2.0
122.0983186,-2.116897888,-0.6725514221,9.461374969,9.71860064,0.0,2.0
122.1083566,-2.193239136,-0.6635700989,9.472002869,9.745227628,0.0,2.0
122.1183936,-2.320474548,-0.5899232483,9.51167038,9.808388501,0.0,2.0
122.1284306,-2.392923889,-0.5745053101,9.566456451,9.877916285,0.0,2.0
122.1384676,-2.424059143,-0.6011499023,9.568103027,9.888682393,0.0,2.0
122.1485046,-2.408790894,-0.6177653503,9.587263184,9.904520329,0.0,2.0
122.1585426,-2.409838715,-0.6189628601,9.578581238,9.896446644,0.0,2.0
122.1685796,-2.430944824,-0.5906716919,9.525890808,9.848907628,0.0,2.0
122.1786166,-2.404749298,-0.5309458923,9.430090027,9.746349093,0.0,2.0
122.1886536,-2.374811554,-0.4451742554,9.392817535,9.698604605,0.0,2.0
122.1986915,-2.4325914,-0.3436853027,9.42036026,9.735440819,0.0,2.0
122.2087285,-2.494412842,-0.2350112915,9.49056427,9.815708629,0.0,2.0
122.2187655,-2.465672607,-0.1531315613,9.544152832,9.858693826,0.0,2.0
122.2288025,-2.391576691,-0.08592132568,9.557026062,9.852094635,0.0,2.0
122.2388395,-2.358495483,-0.04730163574,9.562863922,9.849523074,0.0,2.0
122.2488775,-2.429298248,-0.0419128418,9.587861938,9.890922263,0.0,2.0
122.2589145,-2.484982452,-0.0505947876,9.638456726,9.953770425,0.0,2.0
122.2689515,-2.391876068,-0.07813751221,9.6122612,9.905692402,0.0,2.0
122.2789885,-2.245779877,-0.116308136,9.508826294,9.771122368,0.0,2.0
122.2890255,-2.103276215,-0.1769320679,9.444160767,9.67715084,0.0,2.0
122.2990635,-2.087858276,-0.2010319519,9.409732361,9.640675761,0.0,2.0
122.3091005,-2.03127594,-0.2025288391,9.356443176,9.576540544,0.0,2.0
122.3191375,-1.929038544,-0.1778302002,9.286538544,9.486443559,0.0,2.0
122.3291745,-1.880090332,-0.2179467773,9.212891693,9.405297114,0.0,2.0
122.3392115,-1.793869629,-0.2890489197,9.046737213,9.227403304,0.0,2.0
122.3492495,-1.757794647,-0.3829037476,8.807983704,8.989829488,0.0,2.0
122.3592865,-1.618584137,-0.5237608337,8.659342804,8.824871547,0.0,2.0
122.3693235,-1.387165375,-0.6010002136,8.593629456,8.725588591,0.0,2.0
122.3793605,-1.199455719,-0.590072937,8.595276031,8.698600471,0.0,2.0
122.3893975,-1.178648987,-0.5129832458,8.688981171,8.78355048,0.0,2.0
122.3994355,-1.148411865,-0.3710783386,8.784781952,8.867296256,0.0,2.0
122.4094725,-1.344653778,-0.3158432007,9.056317291,9.16104435,0.0,2.0
122.4195095,-1.684297485,-0.2670446777,9.205407257,9.362034696,0.0,2.0
122.4295465,-1.934726715,-0.1681004333,9.326056366,9.526108994,0.0,2.0
122.4395845,-2.147584076,-0.08696914673,9.429042206,9.670910914,0.0,2.0
122.4496215,-2.339335327,-0.0043409729,9.500892792,9.784654948,0.0,2.0
122.4596585,-2.471809845,0.07080276489,9.603579254,9.91683374,0.0,2.0
122.4696955,-2.583327942,0.1922003174,9.687704315,10.02806757,0.0,2.0
122.4797325,-2.737207947,0.2921923828,9.735604706,10.11729622,0.0,2.0
122.4897705,-2.8970755,0.3983216858,9.75147171,10.18051605,0.0,2.0
122.4998075,-2.900518341,0.4526586914,9.734706573,10.16771452,0.0,2.0
122.5098445,-2.787203979,0.40251297,9.670490112,10.07218456,0.0,2.0
122.5198815,-2.667303314,0.254021759,9.50463501,9.875075731,0.0,2.0
122.5299185,-2.583178253,0.1050814819,9.257049866,9.611286294,0.0,2.0
122.5399565,-2.488425293,-0.08666976929,9.106313324,9.44058867,0.0,2.0
122.5499935,-2.446063385,-0.2426454163,9.020841064,9.349742049,0.0,2.0
122.5600305,-2.419867859,-0.3354524231,9.106612701,9.428609849,0.0,2.0
122.5700675,-2.282603302,-0.4273612976,9.318422241,9.603432125,0.0,2.0
122.5801045,-2.10028244,-0.5203179932,9.465416565,9.709584331,0.0,2.0
122.5901425,-1.922751617,-0.6370751953,9.555978241,9.768293542,0.0,2.0
122.6001795,-1.63579834,-0.8265811157,9.662107544,9.834398545,0.0,2.0
122.6102165,-1.220112762,-0.9830058289,9.766889648,9.891769762,0.0,2.0
122.6202535,-0.7521858215,-1.124012604,9.883048096,9.975160525,0.0,2.0
122.6302905,-0.3784130859,-1.224453735,9.942624207,10.02488202,0.0,2.0
122.6403285,-0.07244934082,-1.327738953,9.919572144,10.00829911,0.0,2.0
122.6503655,-0.002993774414,-1.474134521,9.904453583,10.01355493,0.0,2.0
122.6604025,-0.04296066284,-1.561552734,9.913285217,10.03561241,0.0,2.0
122.6704395,-0.12753479,-1.515897675,10.0236058,10.13838667,0.0,2.0
122.6804775,-0.4305047607,-1.48715744,10.26011398,10.3762667,0.0,2.0
122.6905145,-0.8958869934,-1.507215729,10.49602341,10.64146701,0.0,2.0
122.7005515,-1.320404205,-1.461710358,10.65738785,10.83789556,0.0,2.0
122.7105885,-1.552421722,-1.305585022,10.78641953,10.97549141,0.0,2.0
122.7206255,-1.642384644,-1.175655212,10.90078171,11.08632646,0.0,2.0
122.7306635,-1.590592346,-1.070124664,10.98939743,11.15535776,0.0,2.0
122.7407005,-1.354682922,-0.9571096802,10.9194928,11.04475204,0.0,2.0
122.7507375,-0.9277706909,-0.9101074219,10.5969136,10.67631172,0.0,2.0
122.7607745,-0.3945794678,-0.8387059021,10.02809647,10.07084104,0.0,2.0
122.7708115,0.1413061523,-0.6819818115,9.343270569,9.369192684,0.0,2.0
122.7808495,0.5592370605,-0.5090913391,8.743467865,8.776112487,0.0,2.0
122.7908865,0.8937913513,-0.3415896606,8.339757385,8.3944684,0.0,2.0
122.8009235,1.161584473,-0.1556762695,8.178692322,8.262234666,0.0,2.0
122.8109605,1.254391479,-0.1704954529,8.235873413,8.332597288,0.0,2.0
122.8209975,1.23328537,-0.3734733582,8.42927124,8.527197007,0.0,2.0
122.8310355,1.229692841,-0.5637277222,8.753497009,8.857406128,0.0,2.0
122.8410725,1.197809143,-0.702638855,9.130862274,9.235859136,0.0,2.0
122.8511095,1.191821594,-0.8003855896,9.454638977,9.563014901,0.0,2.0
122.8611465,1.236428833,-0.8743318176,9.753417664,9.870277023,0.0,2.0
122.8711835,1.360520782,-0.9340576172,10.00025436,10.13551024,0.0,2.0
122.8812215,1.47787674,-1.023421783,10.13617172,10.29434257,0.0,2.0
122.8912585,1.63924118,-1.096918945,10.17928207,10.36861256,0.0,2.0
122.9012955,1.865570526,-1.183439026,10.09949799,10.33831422,0.0,2.0
122.9113325,1.999392242,-1.232686615,10.02300705,10.29454982,0.0,2.0
122.9213705,2.037413177,-1.234632568,10.00249969,10.28228429,0.0,2.0
122.9314075,1.999541931,-1.20873642,10.01492386,10.28386657,0.0,2.0
122.9414445,1.839225311,-1.166374512,10.06596771,10.29887786,0.0,2.0
122.9514815,1.599873047,-1.111139374,10.14036301,10.32575355,0.0,2.0
122.9615185,1.337768097,-1.097368011,10.22568558,10.37104072,0.0,2.0
122.9715565,1.108744354,-1.101708984,10.23840912,10.35703133,0.0,2.0
122.9815935,0.9560618591,-1.153501282,10.23077499,10.33989248,0.0,2.0
122.9916305,0.82373703,-1.207838287,10.2559227,10.35960262,0.0,2.0
123.0016675,0.6801855469,-1.264570312,10.13527359,10.23648188,0.0,2.0
123.0117045,0.6081852722,-1.260828094,9.991422729,10.08900912,0.0,2.0
123.0217425,0.5858816528,-1.196611633,9.704619141,9.795650534,0.0,2.0
123.0317795,0.63887146,-1.123114471,9.507030029,9.594433951,0.0,2.0
123.0418165,0.6652166748,-1.043629761,9.426647186,9.507541926,0.0,2.0
123.0518535,0.6201603699,-1.013542328,9.330696716,9.406049551,0.0,2.0
123.0618905,0.567020874,-1.018631744,9.249116364,9.322299974,0.0,2.0
123.0719285,0.4412823486,-1.062340851,9.274713135,9.345779899,0.0,2.0
123.0819655,0.3324586487,-1.068777466,9.426946564,9.493162568,0.0,2.0
123.0920025,0.3062631226,-0.9957293701,9.52918396,9.585959578,0.0,2.0
123.1020395,0.3613485718,-0.9686357117,9.682614899,9.737651627,0.0,2.0
123.1120765,0.5081932068,-0.9650431824,9.710007935,9.771070707,0.0,2.0
123.1221145,0.6779402161,-0.8909472656,9.694889374,9.759317084,0.0,2.0
123.1321515,0.7999365234,-0.7288343811,9.732161865,9.79214341,0.0,2.0
123.1421885,0.8982820129,-0.5357359314,9.805808716,9.861430329,0.0,2.0
123.1522255,1.02387085,-0.3939807129,9.84861969,9.909532891,0.0,2.0
123.1622635,1.083896027,-0.3070115662,9.975406036,10.03881528,0.0,2.0
123.1723005,1.164578247,-0.3132984924,10.25367737,10.3243546,0.0,2.0
123.1823375,1.180894318,-0.3359014893,10.61921722,10.68995396,0.0,2.0
123.1923744,1.103505249,-0.5074447632,11.15180969,11.2177575,0.0,2.0
123.2024114,0.9264234924,-0.7303312683,11.59144547,11.65131976,0.0,2.0
123.2124494,0.7545808411,-0.8794212341,11.8855838,11.94193771,0.0,2.0
123.2224864,0.6990463257,-0.808768158,12.24633362,12.29290278,0.0,2.0
123.2325234,0.6459068298,-0.7247927856,12.43808487,12.47591582,0.0,2.0
123.2425604,0.5616320801,-0.6954537964,12.37701187,12.40925096,0.0,2.0
123.2525974,0.433049469,-0.6957531738,12.27088257,12.29821789,0.0,2.0
123.2626354,0.2653981018,-0.7042854309,12.11266159,12.13602179,0.0,2.0
123.2726724,0.07978408813,-0.7683522034,11.94545929,11.97041053,0.0,2.0
123.2827094,-0.02799179077,-0.8511300659,11.67048111,11.70150996,0.0,2.0
123.2927464,-0.05403762817,-0.955612793,11.27919479,11.31973282,0.0,2.0
123.3027834,-0.0347277832,-1.031954041,10.85108505,10.90010009,0.0,2.0
123.3128214,0.1128652954,-1.080153809,10.47342041,10.52957767,0.0,2.0
123.3228584,0.2715353394,-1.145118713,10.11880783,10.18701626,0.0,2.0
123.3328954,0.3257226562,-1.242266693,9.763297119,9.847400287,0.0,2.0
123.3429324,0.4327500916,-1.338815918,9.411678314,9.516269721,0.0,2.0
123.3529694,0.5867797852,-1.447789307,9.056916046,9.190654637,0.0,2.0
123.3630074,0.8131091309,-1.477727051,8.791368256,8.951702603,0.0,2.0
123.3730444,1.043330383,-1.52457962,8.568781128,8.765665481,0.0,2.0
123.3830814,1.247655487,-1.639091492,8.308472443,8.560022165,0.0,2.0
123.3931184,1.41695343,-1.647773438,8.205037537,8.487965322,0.0,2.0
123.4031564,1.589843903,-1.650318146,8.268056488,8.57973844,0.0,2.0
123.4131934,1.648222504,-1.690285034,8.364156647,8.690961818,0.0,2.0
123.4232304,1.580712891,-1.709295502,8.471483459,8.785577748,0.0,2.0
123.4332674,1.454076233,-1.735790405,8.608448639,8.901274852,0.0,2.0
123.4433044,1.281036072,-1.729503479,8.759783936,9.020313204,0.0,2.0
123.4533424,1.105151825,-1.707499237,8.927285614,9.156054971,0.0,2.0
123.4633794,0.9442364502,-1.702409821,9.006470947,9.214461492,0.0,2.0
123.4734164,0.7685018921,-1.66618515,9.135053558,9.317508875,0.0,2.0
123.4834534,0.6339317322,-1.593586121,9.351952515,9.5079126,0.0,2.0
123.4934904,0.6069877625,-1.503922577,9.583970032,9.720221131,0.0,2.0
123.5035284,0.6053411865,-1.432670746,9.84158432,9.963722464,0.0,2.0
123.5135654,0.6041436768,-1.442550201,10.07375153,10.19443037,0.0,2.0
123.5236024,0.5824388123,-1.537602539,10.14919464,10.28151781,0.0,2.0
123.5336394,0.6433621216,-1.602717133,10.10713211,10.25362065,0.0,2.0
123.5436764,0.7125183105,-1.580563202,10.11491592,10.26242596,0.0,2.0
123.5537144,0.7584727478,-1.483864288,10.185569,10.32099559,0.0,2.0
123.5637514,0.6891668701,-1.373394012,10.26684998,10.38120275,0.0,2.0
123.5737884,0.5779481506,-1.336869965,10.20502853,10.308436,0.0,2.0
123.5838254,0.5634283447,-1.343905334,10.04321503,10.14838416,0.0,2.0
123.5938634,0.6192622375,-1.275198212,9.94457016,10.04510288,0.0,2.0
123.6039004,0.6258485413,-1.183139648,9.954449615,10.04403171,0.0,2.0
123.6139374,0.5912704468,-1.073866882,10.05848328,10.13291057,0.0,2.0
123.6239744,0.559536438,-1.066981201,9.969268799,10.04180513,0.0,2.0
123.6340114,0.6261479187,-1.095122681,9.717342682,9.798882778,0.0,2.0
123.6440494,0.8029302979,-1.074016571,9.518106995,9.612105358,0.0,2.0
123.6540864,1.006207581,-0.9690847778,9.497150574,9.599346229,0.0,2.0
123.6641234,1.146316223,-0.8860075378,9.589508514,9.698336135,0.0,2.0
123.6741604,1.168170776,-0.9327104187,9.654473419,9.769515274,0.0,2.0
123.6841974,1.181343384,-1.073268127,9.605974274,9.737670071,0.0,2.0
123.6942354,1.188977509,-1.09407486,9.583371277,9.718625023,0.0,2.0
123.7042724,1.21337677,-1.071621552,9.661658478,9.796341178,0.0,2.0
123.7143094,1.238823853,-1.076860657,9.854756927,9.990522885,0.0,2.0
123.7243464,1.171763306,-1.138233032,10.0303418,10.16249774,0.0,2.0
123.7343834,1.16772171,-1.09871521,10.06731491,10.19419338,0.0,2.0
123.7444214,1.215921478,-1.009351044,10.08767258,10.21069991,0.0,2.0
123.7544584,1.222657471,-0.9717791748,10.18886215,10.30786874,0.0,2.0
123.7644954,1.17475708,-0.9571096802,10.16985168,10.28212023,0.0,2.0
123.7745324,1.193019104,-0.8734336853,10.13198044,10.23929727,0.0,2.0
123.7845694,1.105600891,-0.812510376,10.1815274,10.27355959,0.0,2.0
123.7946074,0.9214837646,-0.7608677673,10.35636383,10.42508148,0.0,2.0
123.8046444,0.6774911499,-0.7279362488,10.69451065,10.74064446,0.0,2.0
123.8146814,0.3565585327,-0.6969506836,10.83102676,10.85928244,0.0,2.0
123.8247184,0.1945953369,-0.6997947693,10.78477295,10.80920476,0.0,2.0
123.8347564,0.2430944824,-0.7821235657,10.7177124,10.74896141,0.0,2.0
123.8447934,0.2981799316,-0.8815168762,10.64092209,10.68153576,0.0,2.0
123.8548304,0.3299139404,-0.9680369568,10.55155792,10.6010053,0.0,2.0
123.8648674,0.3947291565,-1.02147583,10.39633072,10.45384697,0.0,2.0
123.8749044,0.4842430115,-1.049467621,10.19799316,10.26328106,0.0,2.0
123.8849424,0.5275030518,-1.067280579,9.992620239,10.06329005,0.0,2.0
123.8949794,0.5483097839,-1.075812836,9.851912842,9.925633658,0.0,2.0
123.9050164,0.5822891235,-1.024319916,9.836345215,9.906663369,0.0,2.0
123.9150534,0.5674699402,-0.9181906128,9.821376343,9.880512608,0.0,2.0
123.9250904,0.5766009521,-0.8111631775,9.83454895,9.884776548,0.0,2.0
123.9351284,0.5457650757,-0.7084767151,9.869875488,9.91030983,0.0,2.0
123.9451654,0.4287084961,-0.6349795532,9.736502838,9.766600101,0.0,2.0
123.9552024,0.3415896606,-0.5513035583,9.490264893,9.512399636,0.0,2.0
123.9652394,0.4117936707,-0.4531077576,9.175619202,9.196024598,0.0,2.0
123.9752764,0.5486091614,-0.305514679,8.967102814,8.989062471,0.0,2.0
123.9853144,0.6548881531,-0.1434017944,8.838071136,8.863461174,0.0,2.0
123.9953514,0.7544311523,-0.07334747314,8.750203857,8.782972946,0.0,2.0
124.0053884,0.8207432556,-0.01945953369,8.763376465,8.801747851,0.0,2.0
124.0154254,0.8259823608,-0.00628692627,8.765023041,8.803857978,0.0,2.0
124.0254624,0.8491841125,-0.04011657715,8.787176971,8.828204921,0.0,2.0
124.0355004,0.9219328308,-0.06137237549,8.806786194,8.855123363,0.0,2.0
124.0455374,1.091380463,-0.02290237427,8.932824097,8.999276758,0.0,2.0
124.0555744,1.176852722,-0.003143463135,9.137747955,9.213220387,0.0,2.0
124.0656114,1.347647552,-0.01077758789,9.48816925,9.583403665,0.0,2.0
124.0756484,1.355880432,-0.1357676697,9.829309845,9.923314801,0.0,2.0
124.0856864,1.298998718,-0.3457809448,10.14230896,10.23100157,0.0,2.0
124.0957234,1.204096069,-0.5791456604,10.37163208,10.45734235,0.0,2.0
124.1057604,1.049317932,-0.7909552002,10.42402313,10.50651876,0.0,2.0
124.1157974,0.942739563,-0.8686436462,10.3568129,10.43584558,0.0,2.0
124.1258354,0.8888516235,-0.8204438782,10.28151947,10.35243102,0.0,2.0
124.1358724,0.8527766418,-0.6671626282,10.24948608,10.30651731,0.0,2.0
124.1459094,0.7927514648,-0.452359314,10.30756531,10.34789768,0.0,2.0
124.1559464,0.6230044556,-0.2986289978,10.49811905,10.52082779,0.0,2.0
124.1659834,0.4403842163,-0.1974394226,10.70034851,10.71122677,0.0,2.0
124.1760214,0.315693512,-0.1335223389,10.68567902,10.69117518,0.0,2.0
124.1860584,0.2387535095,-0.06331832886,10.49961594,10.502521,0.0,2.0
124.196095,0.3215313721,0.0122744751,10.08273285,10.08786572,0.0,2.0
124.206132,0.4790039062,0.1101708984,9.556876373,9.569507217,0.0,2.0
124.216169,0.7473957825,0.1984872437,9.207652588,9.240068388,0.0,2.0
124.226207,0.9506730652,0.1863624573,8.961115265,9.013328854,0.0,2.0
124.236244,1.139879608,0.1731898499,8.73703125,8.812776822,0.0,2.0
124.246281,1.253343658,0.08936416626,8.518635406,8.610807481,0.0,2.0
124.256318,1.338815918,-0.007933502197,8.341703339,8.448461729,0.0,2.0
124.266355,1.336570587,-0.1022373962,8.155340881,8.264772127,0.0,2.0
124.276393,1.375190277,-0.1983375549,8.084987183,8.203505582,0.0,2.0
124.28643,1.37953125,-0.2444416809,8.233628082,8.351975192,0.0,2.0
124.296467,1.347048798,-0.3186872864,8.511600037,8.623423754,0.0,2.0
124.306504,1.289268951,-0.5333409119,8.772956543,8.883210763,0.0,2.0
124.316542,1.257385254,-0.679586792,8.875343628,8.989693009,0.0,2.0
124.326579,1.304088135,-0.7571255493,8.886420593,9.013454161,0.0,2.0
124.336616,1.287023621,-0.7614665222,9.019194489,9.142326306,0.0,2.0
124.346653,1.122665405,-0.7095245361,9.172176361,9.267827247,0.0,2.0
124.35669,0.9080117798,-0.5390290833,9.363179169,9.422534791,0.0,2.0
124.366728,0.7017407227,-0.2836601257,9.51511322,9.545170648,0.0,2.0
124.376765,0.4704716492,-0.05792953491,9.579030304,9.590751846,0.0,2.0
124.386802,0.2396516418,0.09190887451,9.586065674,9.589501304,0.0,2.0
124.396839,0.1296304321,0.2329156494,9.630074158,9.63376261,0.0,2.0
124.406876,0.08412506104,0.4074526978,9.658964081,9.667920244,0.0,2.0
124.416914,0.1160087585,0.4984634399,9.647737427,9.661302256,0.0,2.0
124.426951,0.06706054688,0.5478607178,9.610914001,9.626750045,0.0,2.0
124.436988,0.04505630493,0.6303392029,9.517957306,9.5389134,0.0,2.0
124.447025,0.07948471069,0.6309379578,9.410181427,9.431644343,0.0,2.0
124.457062,0.09879455566,0.5851332092,9.304650879,9.323554538,0.0,2.0
124.4671,0.1389111328,0.5140310669,9.183852081,9.19927515,0.0,2.0
124.477137,0.2311193848,0.4194277954,9.083710327,9.096325036,0.0,2.0
124.487174,0.3932322693,0.2689906311,9.05407196,9.066598405,0.0,2.0
124.497211,0.5617817688,0.1155596924,9.062155151,9.080286823,0.0,2.0
124.507248,0.7747888184,-0.06885681152,9.094637604,9.127840496,0.0,2.0
124.517286,0.9704319763,-0.3492237854,9.201814728,9.259432475,0.0,2.0
124.527323,1.085392914,-0.7185058594,9.372010803,9.461972043,0.0,2.0
124.53736,1.155147858,-1.009500732,9.562265167,9.684543016,0.0,2.0
124.547397,1.103954315,-1.199006653,9.822274475,9.956576116,0.0,2.0
124.557434,1.01324295,-1.339863739,10.15084122,10.2889005,0.0,2.0
124.567472,0.9349557495,-1.479373627,10.43839325,10.58407966,0.0,2.0
124.577509,0.8581654358,-1.54448822,10.67056046,10.81585652,0.0,2.0
124.587546,0.699944458,-1.608405304,10.85138443,10.99224426,0.0,2.0
124.597583,0.5477110291,-1.645528107,10.88117249,11.01851464,0.0,2.0
124.607621,0.3860472107,-1.630110168,10.76261902,10.89221097,0.0,2.0
124.617658,0.2622546387,-1.532213745,10.66023193,10.77297551,0.0,2.0
124.627695,0.09011260986,-1.409019928,10.68537964,10.77825568,0.0,2.0
124.637732,-0.1809736633,-1.292412415,10.7323819,10.81143388,0.0,2.0
124.647769,-0.4439767456,-1.133892059,10.70798264,10.77699952,0.0,2.0
124.657807,-0.5971083069,-1.037791901,10.66577042,10.73276334,0.0,2.0
124.667844,-0.6909631348,-0.9562115479,10.65424438,10.71936071,0.0,2.0
124.677881,-0.6403683472,-0.9054670715,10.58613602,10.64406962,0.0,2.0
124.687918,-0.4471202087,-0.8578660583,10.32777328,10.37298181,0.0,2.0
124.697955,-0.1423539734,-0.8385562134,9.923314362,9.959699247,0.0,2.0
124.707993,0.2323168945,-0.7864645386,9.540560303,9.57573958,0.0,2.0
124.71803,0.5602848816,-0.7373666382,9.269324341,9.315471134,0.0,2.0
124.728067,0.7873626709,-0.6685098267,9.070088654,9.128710399,0.0,2.0
124.738104,0.9404942322,-0.5192701721,8.913514252,8.97802357,0.0,2.0
124.748141,1.04258194,-0.3201841736,8.754993896,8.822664741,0.0,2.0
124.758179,1.052461395,-0.1426533508,8.653654633,8.71858724,0.0,2.0
124.768216,1.034199371,0.05418731689,8.630153503,8.692068459,0.0,2.0
124.778253,0.9119036865,0.2315684509,8.687035217,8.737835724,0.0,2.0
124.78829,0.7538323975,0.3201841736,8.805139618,8.843147906,0.0,2.0
124.798328,0.5960604858,0.3791615295,8.946146393,8.973995033,0.0,2.0
124.808365,0.4204756165,0.4052073669,9.061706085,9.080501634,0.0,2.0
124.818402,0.3384461975,0.4480183411,9.203760681,9.22087181,0.0,2.0
124.828439,0.3031196594,0.4601431274,9.298363953,9.314675809,0.0,2.0
124.838476,0.2598596191,0.3956272888,9.358538818,9.370501416,0.0,2.0
124.848514,0.2233355713,0.3029699707,9.429341583,9.43685076,0.0,2.0
124.858551,0.1410067749,0.2610571289,9.555678864,9.560284111,0.0,2.0
124.868588,0.04685256958,0.3251239014,9.672585754,9.678161803,0.0,2.0
124.878625,-0.1269360352,0.353714447,9.774673462,9.781894906,0.0,2.0
124.888662,-0.3080593872,0.3580554199,9.849517822,9.860836962,0.0,2.0
124.8987,-0.4623884583,0.367635498,9.883197784,9.900836197,0.0,2.0
124.908737,-0.5559439087,0.2930905151,9.978250122,9.998022363,0.0,2.0
124.918774,-0.6622229004,0.1490899658,10.12883698,10.1515568,0.0,2.0
124.928811,-0.7363188171,-0.04535568237,10.31235535,10.33870859,0.0,2.0
124.938848,-0.6542893982,-0.2483335876,10.41788589,10.44136537,0.0,2.0
124.948886,-0.4782554626,-0.3761677551,10.5240152,10.54159031,0.0,2.0
124.958923,-0.2734812927,-0.5135820007,10.55859329,10.57461351,0.0,2.0
124.96896,-0.1701960754,-0.7354206848,10.44018951,10.46744321,0.0,2.0
124.978997,-0.04565505981,-0.8520281982,10.28571075,10.32104075,0.0,2.0
124.989035,0.1155596924,-0.9386979675,10.16880386,10.2126921,0.0,2.0
124.999072,0.2398013306,-0.975970459,10.07524841,10.12524832,0.0,2.0
280.005377,-0.2423460388,0.4785548401,10.03752686,10.05185016,0.0,3.0
280.015415,-0.2600093079,0.4315525818,10.19859192,10.21102931,0.0,3.0
280.025452,-0.254021759,0.3989204407,10.29588959,10.3067457,0.0,3.0
280.03549,-0.2098635864,0.3881428528,10.30052994,10.30997646,0.0,3.0
280.045527,-0.2034269714,0.457149353,10.22927811,10.24150861,0.0,3.0
280.055565,-0.195643158,0.6155200195,9.994715881,10.01556223,0.0,3.0
280.065602,-0.08816665649,0.8051756287,9.733059998,9.766705589,0.0,3.0
280.07564,0.0130229187,1.011895752,9.486672363,9.540495539,0.0,3.0
280.085677,0.1128652954,1.061143341,9.273815002,9.335009827,0.0,3.0
280.095715,0.2751278687,1.044976959,9.211095428,9.274262838,0.0,3.0
280.105752,0.3101550293,0.9701325989,9.238937531,9.294908289,0.0,3.0
280.11579,0.5569917297,0.6421646118,9.539063416,9.576865146,0.0,3.0
280.125827,0.7068301392,0.2682421875,10.03752686,10.06595788,0.0,3.0
280.135865,1.307530975,0.03382965088,10.46339127,10.5448252,0.0,3.0
280.145902,1.958227844,-0.220790863,10.86515579,11.04241891,0.0,3.0
280.15594,2.53557724,-0.5941145325,11.06079895,11.36324766,0.0,3.0
280.165977,3.003953247,-0.9092092896,11.04268661,11.48004026,0.0,3.0
280.176014,3.335813141,-1.06009552,10.85258194,11.40306917,0.0,3.0
280.186052,3.340752869,-1.156644745,10.6514003,11.22277974,0.0,3.0
280.196089,3.201692047,-1.153351593,10.45411057,10.99406565,0.0,3.0
280.206127,3.164419556,-1.056353302,9.970765686,10.51406685,0.0,3.0
280.216164,3.138822784,-1.050814819,9.415420532,9.980308816,0.0,3.0
280.226202,3.108735352,-0.9882449341,8.997339935,9.570422637,0.0,3.0
280.236239,2.9368927,-0.9749226379,8.845106506,9.370790895,0.0,3.0
280.246277,2.693199463,-0.9922865295,8.975485382,9.423231598,0.0,3.0
280.256314,2.413431244,-1.052760773,9.176068268,9.546370225,0.0,3.0
280.266352,2.089654541,-1.142574005,9.389524384,9.686862217,0.0,3.0
280.276389,1.765578461,-1.142274628,9.588311005,9.816199191,0.0,3.0
280.286427,1.476529541,-1.160386963,9.720186768,9.899932736,0.0,3.0
280.296464,1.22041214,-1.143921204,9.85565506,9.996594329,0.0,3.0
280.306502,1.038240967,-1.015937347,9.996811523,10.10179754,0.0,3.0
280.316539,0.8738827515,-0.8086184692,9.915829926,9.987052518,0.0,3.0
280.326577,0.8048762512,-0.6077362061,9.60178299,9.654605412,0.0,3.0
280.336614,0.8523275757,-0.3543132019,9.114546204,9.161165463,0.0,3.0
280.3466531,0.9994715881,-0.07244934082,8.510701904,8.569494691,0.0,3.0
280.3566901,1.325643311,0.21061203,8.130342865,8.240398213,0.0,3.0
280.3667281,1.860032043,0.6724017334,8.025710449,8.265825519,0.0,3.0
280.3767651,2.036065979,0.8119116211,7.898774414,8.197280183,0.0,3.0
280.3868031,2.194137268,0.6815327454,7.981552277,8.305654819,0.0,3.0
280.3968401,2.329755249,0.6481521606,8.396040344,8.737353959,0.0,3.0
280.4068781,2.458038483,0.5728587341,9.07757309,9.421913474,0.0,3.0
280.4169151,2.715203705,0.4032614136,9.852361908,10.22760901,0.0,3.0
280.4269521,3.069516907,0.2146536255,10.41040146,10.85561922,0.0,3.0
280.4369901,3.421734467,-0.0419128418,10.74226135,11.27413865,0.0,3.0
280.4470271,3.741768951,-0.1951940918,10.83327209,11.46292807,0.0,3.0
280.4570651,3.89984024,-0.2089654541,10.79195801,11.47688016,0.0,3.0
280.4671021,3.859274597,-0.2130070496,10.76755875,11.44026633,0.0,3.0
280.4771401,3.62381424,-0.2633024597,10.6195166,11.22388038,0.0,3.0
280.4871771,3.381168823,-0.3062631226,10.36309982,10.90504185,0.0,3.0
280.4972151,3.195704498,-0.3155438232,10.05504044,10.55537462,0.0,3.0
280.5072521,3.066672821,-0.3079096985,9.7210849,10.19797932,0.0,3.0
280.5172901,3.053200836,-0.3149450684,9.349108429,9.84007389,0.0,3.0
280.5273271,2.917882233,-0.3644920349,9.08924881,9.553079875,0.0,3.0
280.5373651,2.726729736,-0.3700305176,9.013955383,9.424615074,0.0,3.0
280.5474021,2.535876617,-0.3393443298,9.059011688,9.413369087,0.0,3.0
280.5574401,2.460583191,-0.3321592712,9.051676941,9.386035098,0.0,3.0
280.5674771,2.509681091,-0.3412902832,8.923543396,9.276023123,0.0,3.0
280.5775151,2.645448761,-0.3481759644,8.734486542,9.132955754,0.0,3.0
280.5875521,2.722089386,-0.3071612549,8.585845642,9.012261872,0.0,3.0
280.5975901,2.704276428,-0.2296224976,8.646020508,9.061981467,0.0,3.0
280.6076271,2.693049774,-0.1907034302,8.775800629,9.181697096,0.0,3.0
280.6176651,2.729424133,-0.1347198486,8.893755341,9.304127557,0.0,3.0
280.6277021,2.816692657,-0.1065783691,9.049581299,9.478398502,0.0,3.0
280.6377401,2.923271027,-0.1002914429,9.218430176,9.671350825,0.0,3.0
280.6477771,3.032094727,-0.07319778442,9.419911194,9.896144868,0.0,3.0
280.6578151,3.101250916,-0.03667373657,9.569150848,10.0592122,0.0,3.0
280.6678521,3.183430023,0.0252973938,9.501192169,10.02035525,0.0,3.0
280.6778901,3.239114227,0.05792953491,9.330996094,9.877383505,0.0,3.0
280.6879271,3.332220612,0.1660047913,9.182055817,9.769411488,0.0,3.0
280.6979651,3.269650726,0.2490820312,9.117689667,9.689423233,0.0,3.0
280.7080021,3.243604889,0.2915936279,9.068591766,9.635629515,0.0,3.0
280.7180391,3.241958313,0.3191363525,9.085805969,9.652150632,0.0,3.0
280.7280771,3.175496521,0.3222798157,9.10915741,9.652170282,0.0,3.0
280.7381141,3.179687805,0.3245251465,9.151669006,9.693749363,0.0,3.0
280.7481521,3.197201385,0.2959346008,9.207502899,9.75129651,0.0,3.0
280.7581891,3.251239014,0.2573149109,9.280700684,9.83708144,0.0,3.0
280.7682271,3.291056213,0.2531236267,9.344617767,9.910449222,0.0,3.0
280.7782641,3.342249756,0.1905537415,9.373956757,9.953793721,0.0,3.0
280.7883021,3.370241547,0.1077758789,9.439819794,10.0239883,0.0,3.0
280.7983391,3.256627808,0.1106199646,9.529633026,10.07133393,0.0,3.0
280.8083771,3.190315704,0.06586303711,9.459279327,9.983006442,0.0,3.0
280.8184141,3.120261383,0.03382965088,9.353000336,9.859806835,0.0,3.0
280.8284521,3.093018036,0.08322692871,9.236093445,9.740590814,0.0,3.0
280.8384891,3.092269592,0.1176553345,9.05526947,9.569424183,0.0,3.0
280.8485271,3.030448151,0.0679586792,8.97099472,9.469265053,0.0,3.0
280.8585641,2.942880249,0.02035766602,9.098080444,9.562218695,0.0,3.0
280.8686021,2.868484955,-0.02499801636,9.280101929,9.713347654,0.0,3.0
280.8786391,2.733166351,-0.1422042847,9.633516998,10.01474264,0.0,3.0
280.8886771,2.6210495,-0.1968406677,9.866881714,10.21097456,0.0,3.0
280.8987141,2.63272522,-0.4173321533,10.06985962,10.41669242,0.0,3.0
280.9087521,2.763553162,-0.4616400146,10.10967682,10.49075321,0.0,3.0
280.9187891,2.936293945,-0.4132905579,9.71524704,10.15768951,0.0,3.0
280.9288271,3.017724609,-0.4117936707,9.392667847,9.874130095,0.0,3.0
280.9388641,3.091670837,-0.2883004761,9.135352936,9.648638194,0.0,3.0
280.9489021,2.997965698,-0.160765686,9.01200943,9.498945094,0.0,3.0
280.9589391,2.819836121,-0.09789642334,9.035809937,9.46609321,0.0,3.0
280.9689761,2.674638062,-0.06301895142,9.09972702,9.484866472,0.0,3.0
280.9790141,2.554438019,-0.02365081787,9.156009979,9.505694698,0.0,3.0
280.9890511,2.344424744,0.0288899231,9.21094574,9.504666403,0.0,3.0
280.9990891,2.125130768,0.08053253174,9.308991852,9.548821685,0.0,3.0
281.0091261,1.881287842,0.1616638184,9.344617767,9.53348102,0.0,3.0
281.0191641,1.625469818,0.2612068176,9.38757843,9.530845184,0.0,3.0
281.0292011,1.454824677,0.3787124634,9.314680023,9.43521075,0.0,3.0
281.0392391,1.265767822,0.4194277954,9.261839905,9.357337564,0.0,3.0
281.0492761,0.9758207703,0.5248086548,9.386680298,9.451847296,0.0,3.0
281.0593141,0.8137078857,0.628692627,9.431736603,9.487625113,0.0,3.0
281.0693511,0.7162605286,0.6475534058,9.43083847,9.480140759,0.0,3.0
281.0793891,0.6515950012,0.6478527832,9.533973999,9.578149586,0.0,3.0
281.0894261,0.6379733276,0.6165678406,9.687854004,9.728395606,0.0,3.0
281.0994641,0.593815155,0.5635780334,9.852212219,9.886168229,0.0,3.0
281.1095011,0.5767506409,0.4466711426,10.09440857,10.12073321,0.0,3.0
281.1195391,0.4697232056,0.3293151855,10.42297531,10.43875006,0.0,3.0
281.1295761,0.3640429688,0.1890568542,10.6672673,10.67515159,0.0,3.0
281.1396141,0.2782713318,0.02859054565,10.84883972,10.85244561,0.0,3.0
281.1496511,0.2368075562,-0.1984872437,10.99822906,11.00256868,0.0,3.0
281.1596891,0.2236349487,-0.3951782227,11.19072876,11.19993699,0.0,3.0
281.1697261,0.1848655701,-0.5813909912,11.44774429,11.46398884,0.0,3.0
281.1797641,0.08502319336,-0.7872129822,11.72421936,11.75092562,0.0,3.0
281.1898011,0.1312770081,-0.9698332214,11.85863983,11.89895579,0.0,3.0
281.1998391,0.2580633545,-1.093625793,11.83453995,11.88776471,0.0,3.0
281.2098761,0.4406835938,-1.159488831,11.66090103,11.72668876,0.0,3.0
281.2199141,0.5854325867,-1.15844101,11.395952,11.46963115,0.0,3.0
281.2299511,0.6417155457,-1.089584198,11.01050354,11.08287782,0.0,3.0
281.2399891,0.6583309937,-1.055904236,10.64376617,10.71625363,0.0,3.0
281.2500261,0.5394781494,-1.017883301,10.41623932,10.47975022,0.0,3.0
281.2600631,0.5177732849,-0.8770262146,10.10907806,10.16025214,0.0,3.0
281.2701011,0.3820056152,-0.7411088562,9.855804749,9.891008941,0.0,3.0
281.2801381,0.2070195007,-0.6018983459,9.690847778,9.711728443,0.0,3.0
281.2901761,0.1480421448,-0.4141886902,9.447753296,9.45798663,0.0,3.0
281.3002131,0.07708969116,-0.2541714478,9.172924805,9.176769334,0.0,3.0
281.3102511,-0.0426612854,-0.08816665649,9.001980286,9.002513116,0.0,3.0
281.3202881,-0.2025288391,0.07619155884,8.996591492,8.999193383,0.0,3.0
281.3303261,-0.3878434753,0.2412982178,9.062005463,9.073510368,0.0,3.0
281.3403631,-0.53004776,0.4171824646,9.120533752,9.145443005,0.0,3.0
281.3504011,-0.6893165588,0.563278656,9.157955933,9.201119336,0.0,3.0
281.3604381,-0.7611671448,0.7111711121,9.17352356,9.232479313,0.0,3.0
281.3704761,-0.7610174561,0.8794212341,9.207802277,9.280956418,0.0,3.0
281.3805131,-0.8002359009,1.003812561,9.342522125,9.430309476,0.0,3.0
281.3905511,-0.8363108826,1.133143616,9.521699524,9.625289199,0.0,3.0
281.4005881,-0.9475296021,1.207688599,9.691147156,9.811965007,0.0,3.0
281.4106261,-0.9912387085,1.30348938,9.761800232,9.898200973,0.0,3.0
281.4206631,-0.9225315857,1.242715759,9.696236572,9.81898216,0.0,3.0
281.4307011,-0.8942404175,1.211430817,9.64968338,9.766453803,0.0,3.0
281.4407381,-0.6541397095,1.32220047,9.65671875,9.768742491,0.0,3.0
281.4507761,-0.4668791199,1.244212646,9.545949097,9.638007334,0.0,3.0
281.4608131,-0.2019300842,1.192869415,9.385931854,9.463584415,0.0,3.0
281.4708511,-0.05763015747,1.122366028,9.29522049,9.362913579,0.0,3.0
281.4808881,-0.002544708252,0.9891430664,9.342372437,9.394590636,0.0,3.0
281.4909261,0.05029541016,0.8470884705,9.497000885,9.534836879,0.0,3.0
281.5009631,0.1266366577,0.7048841858,9.694290619,9.720708264,0.0,3.0
281.5110001,0.2811154175,0.5740562439,9.860744476,9.881439575,0.0,3.0
281.5210381,0.4222718811,0.423918457,9.906848602,9.924901492,0.0,3.0
281.5310751,0.5113366699,0.346230011,9.809850311,9.829267701,0.0,3.0
281.5411131,0.5400769043,0.3059637451,9.643097076,9.663054284,0.0,3.0
281.5511501,0.5631289673,0.2633024597,9.42036026,9.440849,0.0,3.0
281.5611881,0.5523513794,0.2371069336,9.300459595,9.319863755,0.0,3.0
281.5712251,0.5459147644,0.2549198914,9.296417999,9.31592157,0.0,3.0
281.5812631,0.5014572144,0.2249821472,9.312584381,9.328788997,0.0,3.0
281.5913001,0.468974762,0.1184037781,9.276210022,9.288812042,0.0,3.0
281.6013381,0.4996609497,0.07140151978,9.285341034,9.299049272,0.0,3.0
281.6113751,0.4397854614,0.01571731567,9.416767731,9.427044753,0.0,3.0
281.6214131,0.3788621521,-0.01721420288,9.47888855,9.486472527,0.0,3.0
281.6314501,0.4806504822,-0.02694396973,9.378447418,9.390794793,0.0,3.0
281.6414881,0.4770579529,-0.03158432007,9.26004364,9.272377801,0.0,3.0
281.6515251,0.450712738,-0.02439926147,9.171727295,9.18282739,0.0,3.0
281.6615631,0.4017645264,0.007484436035,9.239386597,9.248120643,0.0,3.0
281.6716001,0.2924917603,0.0419128418,9.437724152,9.442348504,0.0,3.0
281.6816381,0.2233355713,0.1004411316,9.447154541,9.450327831,0.0,3.0
281.6916751,0.2035766602,0.09550140381,9.356592865,9.359294526,0.0,3.0
281.7017131,0.2025288391,0.1025367737,9.427994385,9.430726899,0.0,3.0
281.7117501,0.1463955688,0.1553768921,9.608369293,9.61074056,0.0,3.0
281.7217881,0.07379653931,0.1965412903,9.686057739,9.688332619,0.0,3.0
281.7318251,0.06960525513,0.1856140137,9.746531982,9.748547745,0.0,3.0
281.7418631,0.02859054565,0.2662962341,9.840536499,9.844180499,0.0,3.0
281.7519001,-0.1347198486,0.3210823059,9.959239655,9.96532477,0.0,3.0
281.7619381,-0.2504292297,0.330662384,10.08437943,10.09290646,0.0,3.0
281.7719751,-0.31943573,0.374072113,10.19679565,10.20865372,0.0,3.0
281.7820131,-0.3881428528,0.4360432434,10.2027832,10.21947032,0.0,3.0
281.7920501,-0.4703219604,0.4296066284,10.26759842,10.28733891,0.0,3.0
281.8020871,-0.5357359314,0.4596940613,10.41968216,10.44356778,0.0,3.0
281.8121251,-0.5879772949,0.5442681885,10.53359528,10.56402265,0.0,3.0
281.8221621,-0.7086264038,0.5830375671,10.46997757,10.51011487,0.0,3.0
281.8322001,-0.8021818542,0.6098318481,10.41593994,10.46456858,0.0,3.0
281.8422371,-0.8093669128,0.6997947693,10.4550087,10.50961438,0.0,3.0
281.8522751,-0.7768844604,0.7978408813,10.41623932,10.47559741,0.0,3.0
281.8623121,-0.7915539551,0.8208929443,10.29364426,10.35661793,0.0,3.0
281.8723501,-0.8271798706,0.856967926,10.19200562,10.26136438,0.0,3.0
281.8823871,-0.7846682739,0.9189390564,10.08213409,10.15428881,0.0,3.0
281.8924251,-0.7098239136,0.9987231445,9.911938019,9.9873827,0.0,3.0
281.9024621,-0.6626719666,1.016685791,9.635313263,9.711438915,0.0,3.0
281.9125001,-0.5700146484,0.9879455566,9.40284668,9.471772738,0.0,3.0
281.9225371,-0.45984375,1.022074585,9.269623718,9.33713107,0.0,3.0
281.9325751,-0.3532653809,1.050066376,9.085356903,9.152657859,0.0,3.0
281.9426121,-0.2897973633,1.012644196,8.939859467,9.001695288,0.0,3.0
281.9526501,-0.2248324585,0.9144483948,8.957672424,9.00703396,0.0,3.0
281.9626871,-0.1770817566,0.8675958252,9.061556396,9.104717722,0.0,3.0
281.9727251,-0.0426612854,0.7397616577,9.201964417,9.231750453,0.0,3.0
281.9827621,0.1426533508,0.6146218872,9.28818512,9.309591444,0.0,3.0
281.9928001,0.2677931213,0.5620811462,9.355095978,9.375791653,0.0,3.0
282.0028371,0.2945874023,0.5185217285,9.42739563,9.446239193,0.0,3.0
282.0128751,0.3685336304,0.430355072,9.459129639,9.476083371,0.0,3.0
282.0229121,0.466280365,0.4098477173,9.329349518,9.349981548,0.0,3.0
282.0329501,0.5264552307,0.4243675232,9.155860291,9.180796292,0.0,3.0
282.0429871,0.5234614563,0.3546125793,9.072633362,9.094637876,0.0,3.0
282.0530251,0.5113366699,0.283510437,9.178014221,9.196618313,0.0,3.0
282.0630621,0.4900808716,0.2531236267,9.405840454,9.422000078,0.0,3.0
282.0731001,0.4320016479,0.1987866211,9.557624817,9.56944793,0.0,3.0
282.0831371,0.4192781067,0.1100212097,9.658215637,9.667938151,0.0,3.0
282.0931751,0.4652325439,0.05628295898,9.733808441,9.74508265,0.0,3.0
282.1032121,0.5001100159,0.05194198608,9.678423615,9.691475206,0.0,3.0
282.1132501,0.5358856201,0.04011657715,9.568402405,9.58348096,0.0,3.0
282.1232871,0.4929249573,0.01481918335,9.574539642,9.587231299,0.0,3.0
282.1333241,0.4194277954,0.04355941772,9.684411163,9.6935874,0.0,3.0
282.1433621,0.2707868958,0.06346801758,9.824968872,9.828904673,0.0,3.0
282.1533991,0.1122665405,0.04490661621,9.895771637,9.896510328,0.0,3.0
282.1634371,-0.02110610962,0.06631210327,9.940229187,9.940472778,0.0,3.0
282.1734741,-0.1221459961,0.1348695374,9.923763428,9.925431477,0.0,3.0
282.1835121,-0.2273771667,0.182769928,9.928403778,9.9326888,0.0,3.0
282.1935491,-0.3815565491,0.2350112915,9.931098175,9.941203482,0.0,3.0
282.2035871,-0.5086422729,0.3085084534,9.882748718,9.900637184,0.0,3.0
282.2136241,-0.5481600952,0.3290158081,9.778715057,9.799591781,0.0,3.0
282.2236621,-0.605640564,0.3742218018,9.668993225,9.695167479,0.0,3.0
282.2336991,-0.6574328613,0.4535568237,9.570947113,9.604215762,0.0,3.0
282.2437371,-0.7008425903,0.4867877197,9.45658493,9.495006117,0.0,3.0
282.2537741,-0.7616162109,0.4752616882,9.406738586,9.44947955,0.0,3.0
282.2638121,-0.7933502197,0.5185217285,9.440867615,9.488321805,0.0,3.0
282.2738491,-0.8141569519,0.5777984619,9.398206329,9.45108379,0.0,3.0
282.2838871,-0.8973838806,0.5566923523,9.338929596,9.398447223,0.0,3.0
282.2939241,-0.983454895,0.5108876038,9.410480804,9.47551258,0.0,3.0
282.3039621,-1.001118164,0.5137316895,9.53966217,9.605795758,0.0,3.0
282.3139991,-0.9735754395,0.5237608337,9.562564545,9.626256553,0.0,3.0
