Time (s),Acceleration x (m/s^2),Acceleration y (m/s^2),Acceleration z (m/s^2),Absolute acceleration (m/s^2),label,window
175.0081613,-4.514013062,-15.31570084,3.162623291,16.27725997,0.0,0.0
175.0181393,-4.908742218,-15.90248062,4.697830811,17.2931852,0.0,0.0
175.0281173,-6.214925995,-15.70908279,4.384232941,17.45342619,0.0,0.0
175.0380943,-7.828720093,-15.41150162,3.613036652,17.65948114,0.0,0.0
175.0480723,-9.120234375,-14.73670486,3.024161224,17.59246135,0.0,0.0
175.0580503,-10.52955368,-13.61374008,2.2746698,17.36028636,0.0,0.0
175.0680273,-11.24746078,-12.4761058,1.413360901,16.85693267,0.0,0.0
175.0780053,-11.68604874,-11.74951675,1.018631744,16.6027856,0.0,0.0
175.0879833,-12.14244965,-11.07561813,1.53984787,16.50695405,0.0,0.0
175.0979603,-13.26242065,-9.639953613,4.910987549,17.11544057,0.0,0.0
175.1079383,-13.41390564,-6.837780762,5.261558533,15.94904726,0.0,0.0
175.1179163,-11.37933655,-3.997287598,0.8828640747,12.09326496,0.0,0.0
175.1278933,-8.162975006,-2.366129608,-7.93320282,11.62619616,0.0,0.0
175.1378713,-5.160518646,-1.85344574,-15.86520813,16.78603714,0.0,0.0
175.1478493,-4.012406158,-1.999242554,-9.732910309,10.71568556,0.0,0.0
175.1578273,-4.368216248,-1.822609863,-2.987038422,5.596929375,0.0,0.0
175.1678043,-4.496948547,-1.814227295,1.589993591,5.10314085,0.0,0.0
175.1777823,-4.035458221,-2.372117157,4.885540466,6.766119162,0.0,0.0
175.1877603,-3.612437897,-2.810405731,7.123087463,8.466785868,0.0,0.0
175.1977379,-3.5500177,-3.092119904,7.945926361,9.23588528,0.0,0.0
175.2077159,-3.738775177,-3.051404572,7.818840637,9.188241322,0.0,0.0
175.2176939,-3.851490784,-3.255879364,6.832242279,8.492011908,0.0,0.0
175.2276709,-3.801494751,-3.442541199,5.320835266,7.390110972,0.0,0.0
175.2376489,-3.30198349,-3.554208984,3.266656952,5.84863609,0.0,0.0
175.2476269,-2.734214172,-3.729494476,2.430495758,5.224209588,0.0,0.0
175.2576039,-2.17048645,-3.559148712,2.64200592,4.935458061,0.0,0.0
175.2675819,-1.611848145,-3.263064423,3.357368317,4.951521572,0.0,0.0
175.2775599,-1.08464447,-2.71460495,4.038302307,4.985320369,0.0,0.0
175.2875379,-0.48559021,-2.249522095,4.138893127,4.735671423,0.0,0.0
175.2975149,0.07080276489,-2.024689636,4.052822113,4.530976521,0.0,0.0
175.3074929,0.2276765442,-1.885628815,3.754941559,4.207970858,0.0,0.0
175.3174709,-0.04101470947,-1.885778503,3.305875397,3.806133853,0.0,0.0
175.3274479,-0.5810916138,-2.463277588,2.762505341,3.746577064,0.0,0.0
175.3374259,-1.314716034,-3.457210693,2.215093689,4.311313498,0.0,0.0
175.3474039,-2.350262604,-4.500690765,1.53041748,5.303030203,0.0,0.0
175.3573809,-4.611909485,-6.267616425,0.1564247131,7.783135193,0.0,0.0
175.3673589,-9.685458984,-13.12800018,-22.82214111,28.05356714,0.0,0.0
175.3773369,-15.9172998,-25.06028687,-54.20438141,61.80204992,0.0,0.0
175.3873149,-19.23410248,-28.72885803,-31.02538239,46.45290447,0.0,0.0
175.3972919,-18.17011505,-24.9284111,-18.04961563,35.7402768,0.0,0.0
175.4072699,-13.03534286,-17.10223572,-11.08729385,24.19369164,0.0,0.0
175.4172479,-8.152945862,-10.49946625,-4.706961823,14.10194339,0.0,0.0
175.4272249,-6.306535492,-7.365882568,-1.281934204,9.781204999,0.0,0.0
175.4372029,-6.551426239,-6.154002686,-0.5143304443,9.003192246,0.0,0.0
175.4471809,-7.770790558,-5.331463165,0.5471122742,9.439757265,0.0,0.0
175.4571579,-9.195827179,-5.336253204,2.263293457,10.87020391,0.0,0.0
175.4671359,-11.44460083,-6.742878113,3.781436462,13.8110302,0.0,0.0
175.4771139,-14.45424225,-8.667725372,5.374423828,17.69008235,0.0,0.0
175.4870909,-17.02260132,-9.59474762,6.194568329,20.49880031,0.0,0.0
175.4970689,-17.37571701,-8.979526978,5.742508392,20.3844021,0.0,0.0
175.5070469,-14.5942012,-6.783144379,5.195695496,16.91144607,0.0,0.0
175.5170249,-10.25023453,-4.456682281,3.962110748,11.85865281,0.0,0.0
175.5270019,-7.031777344,-3.036884766,2.896327057,8.188850476,0.0,0.0
175.5369799,-4.952451324,-2.657573547,2.393223267,6.108763286,0.0,0.0
175.5469579,-3.327430573,-2.889441376,2.583028564,5.108101628,0.0,0.0
175.5569349,-2.007774811,-3.434008942,3.960613861,5.613380377,0.0,0.0
175.5669129,-1.66618515,-3.852239227,5.740263062,7.111015401,0.0,0.0
175.5768909,-2.742896118,-5.12609024,5.934259644,8.307569909,0.0,0.0
175.5868679,-3.649860077,-6.666237488,4.586462402,8.876701989,0.0,0.0
175.5968459,-4.473896484,-7.918832703,4.162094879,10.00233447,0.0,0.0
175.6068239,-4.945266266,-9.284143524,4.752467194,11.54282998,0.0,0.0
175.6168019,-4.710704041,-10.50335815,4.282444611,12.2821251,0.0,0.0
175.6267789,-3.973337402,-10.81156723,3.686084747,12.09399094,0.0,0.0
175.6367569,-2.836601257,-10.53449341,3.528163147,11.46602779,0.0,0.0
175.6467349,-1.7902771,-10.23421783,3.304677887,10.90253194,0.0,0.0
175.6567119,-1.574425964,-9.825417938,2.473007355,10.25345894,0.0,0.0
175.6666899,-1.664388885,-9.649384003,1.455124054,9.899403417,0.0,0.0
175.6766679,-1.820813599,-9.731263733,1.009051666,9.951434131,0.0,0.0
175.6866449,-1.369352417,-9.780661011,3.610042877,10.5151731,0.0,0.0
175.6966229,-1.329684906,-11.79562088,-3.833827515,12.47409184,0.0,0.0
175.7066009,-0.7789801025,-14.52354813,-21.25310394,25.75334323,0.0,0.0
175.7165779,-0.7162605286,-13.97239426,-25.19889862,28.82230598,0.0,0.0
175.7265559,-3.062780914,-12.4788002,-13.20688614,18.4261478,0.0,0.0
175.7365339,-4.580474854,-11.65431473,-4.186344452,13.20338144,0.0,0.0
175.7465119,-4.860093384,-10.06402176,1.382674713,11.26129793,0.0,0.0
175.7564889,-4.619693298,-7.688162384,4.080364838,9.853871535,0.0,0.0
175.7664669,-4.006119232,-6.023923187,5.388494568,9.02067157,0.0,0.0
175.7764449,-3.297492828,-5.345384216,4.819827118,7.916901213,0.0,0.0
175.7864219,-2.905757446,-5.371430054,3.311862946,6.94723854,0.0,0.0
175.7963999,-3.053350525,-5.970035248,2.423011322,7.129884582,0.0,0.0
175.8063779,-3.522175598,-6.802454224,2.323618011,8.004892571,0.0,0.0
175.8163549,-4.313579865,-7.589816895,2.462229767,9.070549441,0.0,0.0
175.8263329,-5.399122467,-8.236771545,2.633473663,10.19461193,0.0,0.0
175.8363109,-6.467450867,-8.86336853,3.103346558,11.4025428,0.0,0.0
175.8462879,-7.246430969,-9.663005676,3.493435364,12.57332618,0.0,0.0
175.8562659,-7.26274704,-10.56188644,2.915487213,13.14537963,0.0,0.0
175.8662439,-6.420747986,-11.11393845,1.415905609,12.91318788,0.0,0.0
175.8762219,-5.795049133,-11.47408951,-1.286424866,12.91867692,0.0,0.0
175.8861989,-5.640720062,-11.70266418,-9.732311554,16.23231222,0.0,0.0
175.8961769,-6.346801758,-12.54361542,-22.10917374,26.19999511,0.0,0.0
175.9061549,-7.193141785,-13.88123383,-22.63473083,27.509289,0.0,0.0
175.9161319,-6.831643524,-14.85151611,-11.96806229,20.26014311,0.0,0.0
175.9261099,-6.333030396,-15.76985641,-2.57299942,17.18766917,0.0,0.0
175.9360879,-6.21552475,-16.81962341,2.79304184,18.14754976,0.0,0.0
175.9460649,-5.867498474,-17.11346237,4.838538208,18.72724178,0.0,0.0
175.9560429,-5.045857086,-16.2876297,2.838996277,17.28604798,0.0,0.0
175.9660209,-4.481081543,-13.93048141,-1.659299469,14.72724275,0.0,0.0
175.9759979,-4.003574524,-12.65513351,-3.133883057,13.63826368,0.0,0.0
175.9859759,-3.762575684,-13.67286713,0.3803590393,14.18622375,0.0,0.0
175.9959539,-3.741768951,-15.50296143,3.994293823,16.44071261,0.0,0.0
176.0059319,-4.429888,-15.78737,4.218677216,16.93110146,0.0,0.0
176.0159089,-6.043083344,-15.38246201,3.855083313,16.97058222,0.0,0.0
176.0258869,-7.78695694,-15.14310974,3.492537231,17.38241316,0.0,0.0
176.0358649,-9.520801392,-14.95569946,3.091521149,17.99655824,0.0,0.0
176.0458419,-11.35403915,-14.52549408,2.513423309,18.60702771,0.0,0.0
176.0558199,-12.70632706,-13.8337825,1.471889191,18.84119803,0.0,0.0
176.0657979,-13.70714584,-12.91259811,1.12446167,18.86492648,0.0,0.0
176.0757749,-14.63162338,-12.09290268,1.604363708,19.04984727,0.0,0.0
176.0857529,-15.58813431,-10.09500732,3.616180115,18.92025007,0.0,0.0
176.0957309,-16.4668071,-6.200705566,7.220534821,19.01947972,0.0,0.0
176.1057089,-13.80474289,-2.432441711,4.101021881,14.60500186,0.0,0.0
176.1156859,-9.817484436,-0.4052073669,-1.591939545,9.953967308,0.0,0.0
176.1256639,-6.136638794,0.3775149536,-11.30314499,12.86708747,0.0,0.0
176.1356419,-3.377426605,-0.3444337463,-13.52437592,13.94397321,0.0,0.0
176.1456189,-2.677781525,-1.225351868,-6.832391968,7.439998729,0.0,0.0
176.1555969,-2.768043823,-1.543590088,-2.215991821,3.867215629,0.0,0.0
176.1655749,-2.914439392,-1.819017334,1.524280243,3.758485239,0.0,0.0
176.1755519,-3.384911041,-2.279160461,4.917573853,6.390205612,0.0,0.0
176.1855299,-3.456013184,-2.966082001,7.183861084,8.505852669,0.0,0.0
176.1955115,-3.610192566,-3.618126068,7.836952972,9.356396662,0.0,0.0
176.2054885,-3.91750351,-4.078269196,7.66870285,9.528279844,0.0,0.0
176.2154665,-3.916306,-4.570296021,6.494843903,8.854832337,0.0,0.0
176.2254445,-3.409759369,-5.016218719,5.089416504,7.917769228,0.0,0.0
176.2354225,-2.574945374,-4.916076965,4.70262085,7.274118452,0.0,0.0
176.2453995,-1.844314728,-4.471351776,4.844675446,6.845828196,0.0,0.0
176.2553775,-1.123862915,-3.886817322,5.149741058,6.549064797,0.0,0.0
176.2653555,-0.3701802063,-3.093317413,5.233117676,6.090251769,0.0,0.0
176.2753325,0.37676651,-2.488574982,4.645589447,5.283602914,0.0,0.0
176.2853105,0.7903564453,-1.984872437,3.944746857,4.48613527,0.0,0.0
176.2952885,0.6674620056,-1.569635925,3.35691925,3.765390992,0.0,0.0
176.3052655,0.3025209045,-1.388811951,2.696642303,3.048310556,0.0,0.0
176.3152435,-0.1309776306,-1.690434723,1.958527222,2.590473619,0.0,0.0
176.3252215,-0.7237449646,-2.705923004,1.3947995,3.129103981,0.0,0.0
176.3351985,-1.77500885,-3.802243195,0.6845265198,4.251621607,0.0,0.0
176.3451765,-4.226610718,-7.169341278,-10.49677185,13.3957423,0.0,0.0
176.3551545,-11.23593475,-18.1534996,-47.57481766,52.1455564,0.0,0.0
176.3651325,-17.67434601,-26.30375107,-34.12184326,46.56790756,0.0,0.0
176.3751095,-19.04878784,-25.99883514,-20.35437286,38.1194995,0.0,0.0
176.3850875,-17.39263184,-23.6145932,-16.98353256,33.89089896,0.0,0.0
176.3950655,-13.8683606,-17.64665359,-8.60829895,24.03827405,0.0,0.0
176.4050425,-10.93820389,-12.47535736,-3.948189697,17.05482476,0.0,0.0
176.4150205,-10.57865158,-9.683513031,-2.554737396,14.56725702,0.0,0.0
176.4249985,-10.84270248,-7.214547272,-1.435514832,13.10246512,0.0,0.0
176.4349755,-11.16243759,-5.367388458,0.7188052368,12.40667372,0.0,0.0
176.4449535,-12.39362732,-5.079237671,3.716022491,13.89998117,0.0,0.0
176.4549315,-14.32565964,-5.656587067,4.567302246,16.064923,0.0,0.0
176.4649085,-15.63004715,-6.232589264,5.485193481,17.69833016,0.0,0.0
176.4748865,-15.17035309,-5.885461121,6.150260468,17.39551578,0.0,0.0
176.4848645,-12.69899231,-4.756059723,5.38594986,14.59085212,0.0,0.0
176.4948425,-9.235045624,-3.285817108,3.944297791,10.5659901,0.0,0.0
176.5048195,-6.551126862,-2.507884827,2.753673706,7.535878737,0.0,0.0
176.5147975,-4.507875824,-2.596350861,2.152374115,5.62980431,0.0,0.0
176.5247755,-2.844085693,-2.889740753,2.380948792,4.701950893,0.0,0.0
176.5347525,-1.785037994,-3.379073181,3.297642517,5.047667023,0.0,0.0
176.5447305,-1.519639893,-3.861669617,4.960833893,6.46774076,0.0,0.0
176.5547085,-2.101629639,-4.862937469,7.231761475,8.964562566,0.0,0.0
176.5646855,-2.979703674,-7.014114075,9.192683716,11.94076481,0.0,0.0
176.5746635,-3.631448364,-9.292975159,7.345524902,12.38965458,0.0,0.0
176.5846415,-3.750301208,-11.0349028,6.157595215,13.18141942,0.0,0.0
176.5946195,-3.589984589,-12.19738541,5.648653564,13.91299706,0.0,0.0
176.6045965,-3.062182159,-12.60169464,5.617069244,14.13262659,0.0,0.0
176.6145745,-2.420466614,-12.67534149,4.940326538,13.81773378,0.0,0.0
176.6245525,-1.780397644,-12.21834183,3.56872879,12.85276305,0.0,0.0
176.6345295,-1.343755646,-11.15989288,2.441123657,11.50252029,0.0,0.0
176.6445075,-1.206790466,-10.19260437,1.703158264,10.40414702,0.0,0.0
176.6544855,-1.239871674,-9.374106445,1.104852448,9.520076278,0.0,0.0
176.6644625,-1.526226196,-8.983418884,0.903072052,9.156785483,0.0,0.0
176.6744405,-1.625320129,-9.183702393,-5.002597046,10.58338473,0.0,0.0
176.6844185,-1.517993317,-10.33840118,-23.03410034,25.29341063,0.0,0.0
176.6943955,-2.984793091,-10.66966232,-24.0539296,26.4828664,0.0,0.0
176.7043735,-4.221221924,-10.39169037,-12.91080185,17.10247782,0.0,0.0
176.7143515,-4.731211395,-10.31190628,-3.596421204,11.90184935,0.0,0.0
176.7243285,-4.834047546,-9.849966888,2.088457031,11.16922182,0.0,0.0
176.7343065,-4.236490173,-8.716224518,4.32929718,10.6142938,0.0,0.0
176.7442845,-3.562441864,-7.22532486,4.878804474,9.418017013,0.0,0.0
176.7542625,-2.928659821,-6.243815918,5.071304169,8.560397861,0.0,0.0
176.7642395,-2.406545563,-5.878276062,3.901935883,7.454575416,0.0,0.0
176.7742175,-2.055525513,-6.033952332,2.726729736,6.933168174,0.0,0.0
176.7841955,-2.225571899,-6.329886932,2.437980194,7.138934534,0.0,0.0
176.7941725,-3.002905426,-6.837631073,2.390229492,7.841162969,0.0,0.0
176.8041505,-3.926335144,-7.772736511,2.340832214,9.017263221,0.0,0.0
176.8141285,-4.89452179,-8.913963318,2.409988403,10.45098702,0.0,0.0
176.8241055,-5.828579407,-10.00818787,2.650388489,11.88110775,0.0,0.0
176.8340835,-6.599775696,-10.80617844,2.635718994,12.93358211,0.0,0.0
176.8440615,-6.931186523,-11.37724091,2.002835083,13.47198225,0.0,0.0
176.8540385,-6.998396759,-11.56614807,0.2508782959,13.520957,0.0,0.0
176.8640165,-6.851851501,-11.48995651,-7.272925873,15.22702927,0.0,0.0
176.8739945,-6.801256714,-11.63665146,-22.10423401,25.88949422,0.0,0.0
176.8839725,-7.462132416,-12.67474274,-23.67252274,27.86971217,0.0,0.0
176.8939495,-8.026309204,-14.09169617,-10.66711761,19.41094893,0.0,0.0
176.9039275,-7.619455261,-14.96258514,-1.355431366,16.84554086,0.0,0.0
176.9139055,-6.386469269,-15.918647,2.637066193,17.35351348,0.0,0.0
176.9238825,-5.361550598,-16.68999298,4.033063202,17.98798736,0.0,0.0
176.9338605,-4.272864532,-16.38103546,2.355801086,17.09226412,0.0,0.0
176.9438385,-3.500171356,-15.01273087,-3.142565002,15.73241883,0.0,0.0
176.9538155,-4.101321259,-13.25044556,-8.754395142,16.40227356,0.0,0.0
176.9637935,-4.644541626,-13.09821213,-7.341183929,15.71712153,0.0,0.0
176.9737715,-4.218377838,-15.41659103,0.1742376709,15.98425317,0.0,0.0
176.9837485,-3.567381592,-16.69014267,5.391937408,17.89860505,0.0,0.0
176.9937265,-3.507655792,-16.32864441,6.089935913,17.77682752,0.0,0.0
177.0037045,-4.74468338,-15.6014566,5.523214417,17.21694996,0.0,0.0
177.0136825,-6.700815582,-15.15733017,4.666096802,17.21679548,0.0,0.0
177.0236595,-8.439899139,-14.71949066,3.957320709,17.42284965,0.0,0.0
177.0336375,-10.34364029,-14.17162994,2.958896942,17.79272494,0.0,0.0
177.0436155,-12.08092758,-13.43052109,1.78324173,18.15234583,0.0,0.0
177.0535925,-12.91035278,-12.88056473,1.156345367,18.27356811,0.0,0.0
177.0635705,-13.50686234,-12.89673111,1.70600235,18.75290504,0.0,0.0
177.0735485,-14.36188431,-12.14888626,3.034190369,19.05427693,0.0,0.0
177.0835255,-16.22251511,-8.805139618,7.362888794,19.8724083,0.0,0.0
177.0935035,-15.32692749,-4.555327148,6.43541748,17.23601781,0.0,0.0
177.1034815,-11.81358353,-2.071991272,1.131197662,12.04713708,0.0,0.0
177.1134585,-8.176147614,-0.780327301,-6.359076233,10.38730721,0.0,0.0
177.1234365,-4.547693024,-0.7376660156,-15.29728912,15.97600443,0.0,0.0
177.1334145,-2.974165192,-1.407373352,-10.01028351,10.53717867,0.0,0.0
177.1433925,-2.890339508,-1.796414337,-4.078119507,5.311518206,0.0,0.0
177.1533695,-3.052901459,-2.108665009,-0.14040802,3.713002807,0.0,0.0
177.1633475,-3.170706482,-2.640658722,3.438499603,5.371195174,0.0,0.0
177.1733255,-3.358715515,-3.135978699,5.769602051,7.375882329,0.0,0.0
177.1833025,-3.718417511,-3.749103699,6.765780487,8.58243514,0.0,0.0
177.1932805,-4.079317017,-3.635040894,5.551655273,7.789430396,0.0,0.0
177.2032584,-4.444258118,-3.358416138,4.320016479,7.049321354,0.0,0.0
177.2132354,-4.4604245,-3.594175873,4.567601624,7.326422832,0.0,0.0
177.2232134,-4.071233826,-3.615281982,4.663552094,7.168955768,0.0,0.0
177.2331914,-3.496878204,-3.168910217,4.217330017,6.328982668,0.0,0.0
177.2431684,-2.861000519,-2.601889343,4.511019287,5.94175455,0.0,0.0
177.2531464,-2.143243103,-2.22901474,5.079237671,5.946482408,0.0,0.0
177.2631244,-1.411414948,-1.843416595,5.29928009,5.785554975,0.0,0.0
177.2731014,-0.5932164001,-1.571881256,5.132676544,5.400655968,0.0,0.0
177.2830794,0.1182540894,-1.546134796,4.669988708,4.920702325,0.0,0.0
177.2930574,0.3237767029,-1.64627655,4.049379272,4.383210048,0.0,0.0
177.3030354,0.007783813477,-1.939816132,3.486549683,3.989859133,0.0,0.0
177.3130124,-0.5995033264,-2.666255493,3.007545776,4.063699569,0.0,0.0
177.3229904,-1.423539734,-3.787424011,2.376757507,4.692549655,0.0,0.0
177.3329684,-2.621648254,-5.129832458,1.557062073,5.967634617,0.0,0.0
177.3429454,-5.074896698,-7.901768188,-0.8575666809,9.43016106,0.0,0.0
177.3529234,-10.28301636,-17.66865784,-33.59942963,39.32993219,0.0,0.0
177.3629014,-16.18090164,-30.08758255,-48.40753601,59.2484071,0.0,0.0
177.3728784,-18.2955542,-29.13077225,-24.64280502,42.31544676,0.0,0.0
177.3828564,-16.5251857,-25.24170959,-19.03845932,35.67476137,0.0,0.0
177.3928344,-12.62549515,-18.05964478,-12.32042953,25.24572996,0.0,0.0
177.4028114,-9.053323517,-12.0448526,-5.734275513,16.1221294,0.0,0.0
177.4127894,-7.666607208,-9.045839081,-2.844085693,12.19396958,0.0,0.0
177.4227674,-7.229067078,-6.532415771,-1.811383209,9.910245999,0.0,0.0
177.4327444,-6.66010025,-3.656596069,0.3894900513,7.607846782,0.0,0.0
177.4427224,-7.337441711,-2.401905212,2.906954956,8.249702215,0.0,0.0
177.4527004,-9.155860291,-2.449356537,3.391946411,10.06650016,0.0,0.0
177.4626784,-11.7369429,-4.200415192,3.675007782,12.99634559,0.0,0.0
177.4726554,-14.00577484,-6.297254791,3.920197906,15.8488201,0.0,0.0
177.4826334,-15.80174011,-7.68980896,4.978646851,18.26513282,0.0,0.0
177.4926114,-16.01489685,-7.37037323,5.70299057,18.52898875,0.0,0.0
177.5025884,-12.62624359,-5.179678802,4.910688171,14.503998,0.0,0.0
177.5125664,-7.939938812,-3.211571503,3.405867462,9.217198763,0.0,0.0
177.5225444,-4.860392761,-3.026855621,2.819985809,6.38260078,0.0,0.0
177.5325214,-2.828967133,-3.141068115,2.700085144,5.01595691,0.0,0.0
177.5424994,-1.972597961,-3.045117645,2.736160126,4.544277327,0.0,0.0
177.5524774,-2.027833099,-3.64836319,3.993844757,5.776976457,0.0,0.0
177.5624544,-3.009342041,-5.350922699,6.613996124,9.024048869,0.0,0.0
177.5724324,-3.706292725,-7.396568756,6.69288208,10.64145223,0.0,0.0
177.5824104,-3.988755341,-9.60058548,5.801635437,11.90547708,0.0,0.0
177.5923874,-4.206103363,-11.11214218,5.404062195,13.05277356,0.0,0.0
177.6023654,-4.298760681,-12.02868622,4.033063202,13.39530643,0.0,0.0
177.6123434,-4.242178345,-12.29842529,2.343376923,13.21887882,0.0,0.0
177.6223214,-3.747008057,-12.04964264,1.654060364,12.7267385,0.0,0.0
177.6322984,-3.150348816,-11.74278076,1.479523315,12.24771762,0.0,0.0
177.6422764,-2.480342102,-10.91994186,1.594633942,11.31106028,0.0,0.0
177.6522544,-2.020498352,-10.01716919,1.628014526,10.34777867,0.0,0.0
177.6622314,-1.740131378,-9.264384613,2.053729248,9.647522132,0.0,0.0
177.6722094,-0.4962181091,-7.695946198,4.666845245,9.014059287,0.0,0.0
177.6821874,-0.7577243042,-9.05062912,-5.911506958,10.83669452,0.0,0.0
177.6921644,-0.4143383789,-10.92907288,-19.32152069,22.20219521,0.0,0.0
177.7021424,-0.7481442261,-10.75348801,-18.5675386,21.46976278,0.0,0.0
177.7121204,-2.703977051,-11.06394241,-7.464527435,13.61769009,0.0,0.0
177.7220974,-3.451821899,-11.6201857,0.5310955811,12.13366608,0.0,0.0
177.7320754,-3.307372284,-10.21865021,3.058889008,11.16764637,0.0,0.0
177.7420534,-3.298241272,-8.231831818,2.923121338,9.337349138,0.0,0.0
177.7520304,-3.594026184,-6.3887146,4.720733185,8.718831358,0.0,0.0
177.7620084,-3.660487976,-5.578000488,4.735252991,8.181435238,0.0,0.0
177.7719864,-3.653901672,-6.043233032,2.559377747,7.511463064,0.0,0.0
177.7819634,-3.829785919,-7.244634705,1.431922302,8.31879761,0.0,0.0
177.7919414,-4.517904968,-8.411607971,1.453477478,9.658116314,0.0,0.0
177.8019194,-5.561684418,-9.111851807,2.009122009,10.86253875,0.0,0.0
177.8118974,-6.572831726,-9.651479645,2.242786102,11.89046953,0.0,0.0
177.8218744,-6.888974304,-9.962532806,0.9734257507,12.15144372,0.0,0.0
177.8318524,-6.130950623,-10.22927811,-2.550246735,12.1955092,0.0,0.0
177.8418304,-5.258864136,-10.8251889,-8.884624329,14.95917499,0.0,0.0
177.8518074,-5.387895813,-11.48097519,-14.7428421,19.44720046,0.0,0.0
177.8617854,-6.372997284,-11.3335318,-13.60041779,18.81582848,0.0,0.0
177.8717634,-6.937174072,-10.98954712,-7.704179077,15.1079087,0.0,0.0
177.8817404,-6.562203827,-11.91043213,-3.100502472,13.9475456,0.0,0.0
177.8917184,-5.482499084,-13.71657623,-0.7071295166,14.78858654,0.0,0.0
177.9016964,-5.291047211,-15.60609695,0.9648934937,16.50686106,0.0,0.0
177.9116734,-5.234015808,-17.04774902,1.977388,17.94242825,0.0,0.0
177.9216514,-4.462969208,-17.41269012,1.217717743,18.01673411,0.0,0.0
177.9316294,-3.382066956,-14.8835495,-2.793640594,15.51653474,0.0,0.0
177.9416064,-3.449127502,-11.02891525,-9.36422699,14.87354024,0.0,0.0
177.9515844,-4.070036316,-9.61106369,-10.15862503,14.56486881,0.0,0.0
177.9615624,-4.139641571,-12.01611237,-2.678679657,12.98841458,0.0,0.0
177.9715394,-3.992497559,-16.01789062,3.984264679,16.98196755,0.0,0.0
177.9815174,-3.957620087,-18.18927521,5.53923111,19.42152339,0.0,0.0
177.9914954,-5.420078888,-18.35707626,5.081033936,19.8034444,0.0,0.0
178.0014734,-7.522756348,-17.79529449,4.925806732,19.93810275,0.0,0.0
178.0114504,-9.423653412,-17.14968704,4.149970093,20.00348122,0.0,0.0
178.0214284,-11.64892593,-16.14362915,2.807561646,20.10464225,0.0,0.0
178.0314064,-13.06468185,-14.91812759,1.434317322,19.88199459,0.0,0.0
178.0413834,-13.87584503,-14.10082718,0.6587800598,19.79409997,0.0,0.0
178.0513614,-14.38568481,-13.66493362,1.138831787,19.87398491,0.0,0.0
178.0613394,-16.00980743,-11.6387471,6.277196503,20.76481553,0.0,0.0
178.0713164,-16.89761124,-7.310198364,9.198371887,20.58101822,0.0,0.0
178.0812944,-14.04768768,-3.461851044,4.571343842,15.17297355,0.0,0.0
178.0912724,-10.26146118,-1.325792999,-2.649190979,10.68052084,0.0,0.0
178.1012494,-6.358327789,-0.5912704468,-17.01332062,18.17225939,0.0,0.0
178.1112274,-3.896247711,-1.244362335,-13.43650864,14.04524646,0.0,0.0
178.1212054,-3.406765594,-2.2839505,-4.799020386,6.31292946,0.0,0.0
178.1311824,-3.243904266,-2.773582306,0.5252577209,4.300182481,0.0,0.0
178.1411604,-2.888842621,-2.82103363,3.992946625,5.678667553,0.0,0.0
178.1511384,-2.570005646,-2.730921021,6.255641327,7.29355243,0.0,0.0
178.1611154,-2.328857117,-2.294428711,6.938521271,7.670140547,0.0,0.0
178.1710934,-2.602937164,-1.729952545,5.459147644,6.290493676,0.0,0.0
178.1810714,-2.998863831,-1.84177002,4.809797974,5.959820268,0.0,0.0
178.1910494,-2.782264252,-2.416574707,4.822970581,6.069750646,0.0,0.0
178.2010259,-2.763852539,-2.562221832,4.415368195,5.80511308,0.0,0.0
178.2110039,-2.653831329,-1.698667603,4.06599472,5.143987307,0.0,0.0
178.2209819,-2.317031708,-1.229692841,4.169579315,4.926070653,0.0,0.0
178.2309589,-1.696871338,-1.038690033,4.846920776,5.239359726,0.0,0.0
178.2409369,-0.9590556335,-0.9357041931,5.31574585,5.482014592,0.0,0.0
178.2509149,-0.2198927307,-1.102756805,5.126539307,5.248412203,0.0,0.0
178.2608919,0.3122506714,-1.583407288,4.816983032,5.080157936,0.0,0.0
178.2708699,0.3878434753,-2.173629913,4.32929718,4.859825474,0.0,0.0
178.2808479,0.1094224548,-2.784958649,3.6389328,4.583644824,0.0,0.0
178.2908249,-0.556842041,-3.696712646,2.944826202,4.758966149,0.0,0.0
178.3008029,-1.603166199,-4.766687622,2.126627655,5.460219586,0.0,0.0
178.3107809,-3.19555481,-5.847889252,1.175056458,6.766840985,0.0,0.0
178.3207579,-6.088439026,-8.109386444,-3.601809998,10.7612394,0.0,0.0
178.3307359,-11.60925842,-19.99242554,-41.10302582,47.15856965,0.0,0.0
178.3407139,-16.12222366,-30.30118835,-38.66085434,51.69864379,0.0,0.0
178.3506909,-17.77822998,-28.6722757,-22.34373596,40.46489085,0.0,0.0
178.3606689,-16.34286484,-24.67438934,-18.50781281,34.90635838,0.0,0.0
178.3706469,-12.69255569,-17.6107283,-11.66419418,24.64329822,0.0,0.0
178.3806239,-9.687554626,-11.68724625,-5.327122192,16.08784231,0.0,0.0
178.3906019,-8.901090088,-9.150321808,-2.523302765,13.01248826,0.0,0.0
178.4005799,-9.235045624,-6.907535706,-1.410217438,11.61846937,0.0,0.0
178.4105569,-9.26707901,-4.553231506,-0.5733078003,10.3411485,0.0,0.0
178.4205349,-9.389524384,-3.5699263,1.76797348,10.1996702,0.0,0.0
178.4305129,-10.28346542,-3.084934845,4.357738037,11.58690489,0.0,0.0
178.4404899,-11.52692963,-3.310515747,5.11800705,13.03931046,0.0,0.0
178.4504679,-12.66321671,-4.848567352,4.819378052,14.39069378,0.0,0.0
178.4604459,-13.54353607,-6.060896301,4.596790924,15.53358684,0.0,0.0
178.4704239,-13.62167358,-6.095175018,4.597539368,15.61532958,0.0,0.0
178.4804009,-11.45912064,-4.856051788,3.85074234,13.02769747,0.0,0.0
178.4903789,-8.284971313,-3.566034393,2.733166351,9.42483683,0.0,0.0
178.5003569,-5.811664581,-3.412753143,1.821412354,6.981394716,0.0,0.0
178.5103339,-3.948489075,-3.51499054,1.706601105,5.555016813,0.0,0.0
178.5203119,-2.922372894,-3.529660034,2.181413727,5.075167893,0.0,0.0
178.5302899,-2.636018372,-4.085454254,3.111878815,5.772635367,0.0,0.0
178.5402669,-2.800226898,-5.594466248,4.207151184,7.53919388,0.0,0.0
178.5502449,-3.598516846,-7.959847412,5.782774658,10.4761146,0.0,0.0
178.5602229,-3.855981445,-10.14650024,6.971901855,12.90067733,0.0,0.0
178.5701999,-3.770359497,-11.29416367,6.401138763,13.51844374,0.0,0.0
178.5801779,-3.661386108,-12.19035004,5.623505859,13.91525064,0.0,0.0
178.5901559,-3.162323914,-12.79778687,5.317542114,14.21477736,0.0,0.0
178.6001329,-2.450554047,-13.21960968,5.327870636,14.46200196,0.0,0.0
178.6101109,-1.50122818,-12.99432816,5.279970245,14.10618077,0.0,0.0
178.6200889,-0.6480024719,-12.14454529,5.188061371,13.22217336,0.0,0.0
178.6300659,-0.09415420532,-10.94449081,4.543352051,11.85043426,0.0,0.0
178.6400439,0.03367996216,-9.867480469,3.295397186,10.40326621,0.0,0.0
178.6500219,-0.3315605164,-8.847202148,1.99145874,9.0746254,0.0,0.0
178.6599989,-0.5948629761,-8.107440491,0.9701325989,8.186917035,0.0,0.0
178.6699769,-0.2345622253,-6.96905777,-2.841990051,7.529919859,0.0,0.0
178.6799549,-1.268013153,-7.530240784,-10.34588562,12.85883871,0.0,0.0
178.6899319,-3.009042664,-8.769064636,-15.00779114,17.64042594,0.0,0.0
178.6999099,-3.980223083,-9.315578156,-13.23457855,16.66662058,0.0,0.0
178.7098879,-4.672683105,-9.724677429,-7.766299896,13.29355982,0.0,0.0
178.7198659,-4.991370392,-9.948611755,-2.458786926,11.3988722,0.0,0.0
178.7298429,-4.646487579,-9.554631042,1.136736145,10.68517619,0.0,0.0
178.7398209,-4.070934448,-8.628806305,3.190166016,10.06011753,0.0,0.0
178.7497989,-3.585344238,-8.141569519,3.882027283,9.706182739,0.0,0.0
178.7597759,-3.427272949,-8.533155212,3.352428589,9.787732893,0.0,0.0
178.7697539,-3.535797272,-9.231004028,2.779120789,10.26824279,0.0,0.0
178.7797319,-4.021088104,-9.841883698,2.544708252,10.93194239,0.0,0.0
178.7897089,-4.705764313,-10.33271301,1.929637299,11.51662607,0.0,0.0
178.7996869,-4.986580353,-10.54332504,0.260458374,11.66599868,0.0,0.0
178.8096649,-4.590054932,-10.58074722,-3.063080292,11.93328442,0.0,0.0
178.8196419,-4.381538544,-11.0720256,-8.05834259,14.37791766,0.0,0.0
178.8296199,-5.125042419,-11.80100967,-12.44182709,17.8977359,0.0,0.0
178.8395979,-6.160588989,-12.33030899,-12.23750198,18.43219551,0.0,0.0
178.8495749,-6.722969513,-12.65228943,-7.980803833,16.40036514,0.0,0.0
178.8595529,-6.299500122,-13.08503952,-3.099903717,14.84962505,0.0,0.0
178.8695309,-5.081033936,-13.86940842,0.2957849121,14.77379045,0.0,0.0
178.8795079,-4.169279938,-15.1808313,1.525028687,15.81664461,0.0,0.0
178.8894859,-3.948189697,-16.90180252,1.164727936,17.39585357,0.0,0.0
178.8994639,-3.426524506,-18.11966995,-1.631906433,18.51287736,0.0,0.0
178.9094409,-2.290087738,-17.3201825,-6.931186523,18.79559975,0.0,0.0
178.9194189,-1.991159363,-14.30485291,-11.39370667,18.39592574,0.0,0.0
178.9293969,-2.871029663,-12.33854187,-8.277935944,15.13296568,0.0,0.0
178.9393739,-3.636537781,-12.63821869,0.1695973206,13.15210029,0.0,0.0
178.9493519,-4.105512543,-14.02403687,6.1909758,15.87000393,0.0,0.0
178.9593299,-4.085454254,-15.19565048,7.855214996,17.58701603,0.0,0.0
178.9693069,-4.628524933,-15.21870255,7.205266571,17.46276085,0.0,0.0
178.9792849,-6.046226807,-15.35536835,5.69011734,17.4562777,0.0,0.0
178.9892629,-7.344477081,-15.44967224,4.066593475,17.5832562,0.0,0.0
178.9992399,-8.954528961,-14.77038483,3.025957489,17.53579983,0.0,0.0
179.0092179,-10.21430923,-13.73798172,1.982477417,17.23352754,0.0,0.0
179.0191959,-10.76426559,-13.2378717,1.789528656,17.15555519,0.0,0.0
179.0291739,-10.8624614,-12.77383667,1.389111328,16.82538562,0.0,0.0
179.0391509,-11.42813507,-12.32536926,1.412462769,16.86748499,0.0,0.0
179.0491289,-13.9054834,-11.29356491,6.180796967,18.95018016,0.0,0.0
179.0591069,-15.43111084,-7.898475037,7.653883667,18.94959168,0.0,0.0
179.0690839,-13.40836716,-4.354295197,-0.2231858826,14.09943291,0.0,0.0
179.0790619,-9.80416214,-1.942510529,-15.15014511,18.1499818,0.0,0.0
179.0890399,-5.968538361,-0.7893086243,-17.76879959,18.76104201,0.0,0.0
179.0990169,-4.315675507,-0.8922944641,-8.656798096,9.713979502,0.0,0.0
179.1089949,-3.988755341,-1.15365097,-2.282603302,4.738286353,0.0,0.0
179.1189729,-3.662134552,-1.657353516,2.220931549,4.592448922,0.0,0.0
179.1289499,-3.395089874,-2.245330811,5.701942749,7.005733139,0.0,0.0
179.1389279,-3.202889557,-2.566562805,7.409591675,8.470407011,0.0,0.0
179.1489059,-3.372337189,-2.584974518,7.492219849,8.613251978,0.0,0.0
179.1588829,-3.931723938,-2.283351746,6.510561218,7.941004703,0.0,0.0
179.1688609,-4.18544632,-2.522554321,5.629493408,7.454692296,0.0,0.0
179.1788389,-3.953129425,-2.987487488,4.342619476,6.588676472,0.0,0.0
179.1888159,-3.700604553,-3.341651001,3.086880798,5.864293524,0.0,0.0
179.1987948,-3.424728241,-3.408861237,2.609224091,5.491552495,0.0,0.0
179.2087728,-3.144361267,-3.40377182,2.87836441,5.455057475,0.0,0.0
179.2187498,-2.785707092,-3.00365387,3.546125793,5.418220069,0.0,0.0
179.2287278,-2.211650848,-2.571053467,4.156406708,5.364460096,0.0,0.0
179.2387058,-1.511257324,-2.274370422,4.231400757,5.036011505,0.0,0.0
179.2486828,-0.7976911926,-2.174228668,3.814068604,4.462140837,0.0,0.0
179.2586608,-0.2412982178,-2.324216766,3.550466766,4.250414411,0.0,0.0
179.2686388,-0.2128573608,-2.650089111,3.436104584,4.344547763,0.0,0.0
179.2786158,-0.7614665222,-3.104993134,3.244353333,4.554848205,0.0,0.0
179.2885938,-1.641336823,-3.659440155,2.866539001,4.929760102,0.0,0.0
179.2985718,-2.821632385,-4.557572479,2.211052094,5.798433201,0.0,0.0
179.3085488,-4.598736877,-6.226452026,1.764081573,7.939084929,0.0,0.0
179.3185268,-8.242310028,-10.41683807,-1.895807648,13.4179088,0.0,0.0
179.3285048,-14.44466217,-21.65426971,-50.88653091,57.1576302,0.0,0.0
179.3384828,-20.01158569,-30.98361923,-50.58041748,62.60053398,0.0,0.0
179.3484598,-20.73563004,-28.21812012,-22.62709671,41.69189563,0.0,0.0
179.3584378,-16.81677933,-20.47142944,-13.97733398,29.95412085,0.0,0.0
179.3684158,-12.18376373,-13.60730347,-6.998696136,19.55976876,0.0,0.0
179.3783928,-10.61278061,-10.83431992,-3.868555298,15.65181524,0.0,0.0
179.3883708,-10.97772171,-9.354646912,-2.762804718,14.68512454,0.0,0.0
179.3983488,-10.72369995,-6.866970062,-2.030826874,12.89485464,0.0,0.0
179.4083258,-10.26879593,-5.036726074,0.2847079468,11.4410593,0.0,0.0
179.4183038,-10.87757996,-4.464166718,3.523522797,12.27459747,0.0,0.0
179.4282818,-11.86926773,-3.823948059,6.216871948,13.93382905,0.0,0.0
179.4382588,-11.66164948,-2.926863556,7.405999146,14.1212401,0.0,0.0
179.4482368,-10.59002792,-2.661166077,6.89765625,12.91542326,0.0,0.0
179.4582148,-8.828640747,-2.500101013,5.64446228,10.77289919,0.0,0.0
179.4681918,-6.871610413,-2.276615753,4.087250519,8.313099648,0.0,0.0
179.4781698,-5.201683044,-2.614612885,3.055595856,6.574980841,0.0,0.0
179.4881478,-3.860472107,-3.081042938,2.983296204,5.770279605,0.0,0.0
179.4981248,-2.98718811,-3.683240662,3.890409851,6.133909307,0.0,0.0
179.5081028,-2.789149933,-4.449347534,6.008205872,7.97963587,0.0,0.0
179.5180808,-3.31365921,-5.476212158,7.570956116,9.914061401,0.0,0.0
179.5280578,-4.277355194,-7.323071594,7.404801636,11.25851821,0.0,0.0
179.5380358,-4.66864151,-9.619446259,6.756499786,12.6483299,0.0,0.0
179.5480138,-4.558171234,-11.25105331,6.845265198,13.93631161,0.0,0.0
179.5579908,-4.273463287,-12.1828656,6.921157379,14.64879252,0.0,0.0
179.5679688,-3.858376465,-12.53208939,5.787564697,14.33304707,0.0,0.0
179.5779468,-3.312312012,-12.21415054,4.444108429,13.41294092,0.0,0.0
179.5879238,-2.826123047,-11.66569107,3.360212402,12.46460377,0.0,0.0
179.5979018,-2.452799377,-10.93431198,2.634222107,11.51149553,0.0,0.0
179.6078798,-2.168091431,-9.979747009,2.051932983,10.41664052,0.0,0.0
179.6178568,-2.147284698,-9.305249634,1.558708649,9.676160136,0.0,0.0
179.6278348,-2.294728088,-8.91605896,1.417552185,9.315113449,0.0,0.0
179.6378128,-1.926493835,-8.648714905,-0.1770817566,8.862449207,0.0,0.0
179.6477908,-1.09632019,-9.873318329,-18.99025955,21.43161895,0.0,0.0
179.6577678,-1.667083282,-10.65379532,-26.23713959,28.3667061,0.0,0.0
179.6677458,-3.053649902,-10.31011002,-15.56717789,18.91983545,0.0,0.0
179.6777238,-4.038751373,-10.44243484,-4.863536224,12.20696288,0.0,0.0
179.6877008,-4.752467194,-10.26265869,1.398541718,11.39578987,0.0,0.0
179.6976788,-4.599784698,-9.50583252,4.141138458,11.34318733,0.0,0.0
179.7076568,-3.944447479,-8.250842285,4.650229797,10.25961508,0.0,0.0
179.7176338,-3.458108826,-7.25331665,4.842579803,9.38188138,0.0,0.0
179.7276118,-3.067271576,-6.824608154,3.889960785,8.432984424,0.0,0.0
179.7375898,-2.776875458,-6.683002625,2.789000244,7.755777443,0.0,0.0
179.7475668,-2.825224915,-6.613397369,2.28050766,7.544510307,0.0,0.0
179.7575448,-3.392545166,-6.75724823,2.119292908,7.852462593,0.0,0.0
179.7675228,-4.267625427,-7.289092255,2.051783295,8.692140552,0.0,0.0
179.7774998,-5.182522888,-8.203091583,1.835333405,9.875105251,0.0,0.0
179.7874778,-6.076613617,-9.132359161,1.735041962,11.10565565,0.0,0.0
179.7974558,-6.901398468,-9.727371826,1.752106476,12.05491354,0.0,0.0
179.8074328,-7.177873535,-9.869576111,1.197509766,12.26231751,0.0,0.0
179.8174108,-6.941814423,-9.759405212,-0.2891986084,11.97991709,0.0,0.0
179.8273888,-6.599775696,-9.537117462,-4.935536499,12.60449004,0.0,0.0
179.8373658,-6.409820709,-9.649384003,-14.26683197,18.37767416,0.0,0.0
179.8473438,-7.063062286,-11.2419223,-18.98606827,23.1676165,0.0,0.0
179.8573218,-7.726782074,-13.55146957,-11.79038177,19.5539917,0.0,0.0
179.8672988,-7.588170319,-14.62698303,-2.695295105,16.69711284,0.0,0.0
179.8772768,-6.932533722,-15.28546371,2.087109833,16.9133513,0.0,0.0
179.8872548,-6.34425705,-16.17042343,3.927083588,17.80882301,0.0,0.0
179.8972318,-5.773643646,-17.14340012,3.586841125,18.44170702,0.0,0.0
179.9072098,-4.608316956,-16.50437897,-0.3504212952,17.13925043,0.0,0.0
179.9171878,-4.097579041,-13.88587418,-8.084687805,16.58221434,0.0,0.0
179.9271648,-5.080584869,-11.94486053,-11.85744232,17.58098331,0.0,0.0
179.9371428,-5.589825897,-12.77503418,-4.89796463,14.77963834,0.0,0.0
179.9471208,-5.43624527,-15.0003067,3.453318787,16.32444101,0.0,0.0
179.9570978,-5.01142868,-16.50437897,6.548731842,18.44979217,0.0,0.0
179.9670758,-5.566624146,-16.51949753,6.761140137,18.69743616,0.0,0.0
179.9770538,-6.827152863,-16.04034393,6.394851837,18.56870431,0.0,0.0
179.9870308,-8.000263367,-15.50505707,5.317841492,18.23980391,0.0,0.0
179.9970088,-9.29746582,-14.41831696,3.582500153,17.52612455,0.0,0.0
245.0021583,-19.93419662,-19.71340576,-9.964628448,29.75372887,0.0,1.0
245.0121363,-14.74433899,-13.97014893,-4.520449677,20.80853331,0.0,1.0
245.0221143,-12.13795898,-9.766590271,-2.881358185,15.84356522,0.0,1.0
245.0320913,-10.59137512,-6.653663635,-3.353626099,12.94972103,0.0,1.0
245.0420693,-9.153315582,-3.957171021,-2.466870117,10.27267428,0.0,1.0
245.0520473,-9.430988159,-2.739752655,0.05358856201,9.821031209,0.0,1.0
245.0620243,-11.23563538,-3.210523682,2.522554321,11.95450731,0.0,1.0
245.0720023,-13.46569794,-4.186494141,4.342769165,14.75504653,0.0,1.0
245.0819803,-15.71357346,-6.480024719,5.960754547,18.01215439,0.0,1.0
245.0919573,-16.49689453,-7.990683289,6.154900818,19.33601181,0.0,1.0
245.1019353,-14.12148422,-7.707172852,4.940326538,16.82925002,0.0,1.0
245.1119133,-9.906399536,-5.651198273,3.239263916,11.85603747,0.0,1.0
245.1218903,-6.224655762,-4.202211456,2.78016861,8.008386727,0.0,1.0
245.1318683,-3.116219788,-4.098177795,3.1054422,6.012458587,0.0,1.0
245.1418453,-1.994302826,-4.190236359,1.390308838,4.844407411,0.0,1.0
245.1518233,-1.153351593,-4.495152283,2.118095398,5.101268671,0.0,1.0
245.1618013,-0.4861889648,-4.766537933,5.73337738,7.471805656,0.0,1.0
245.1717783,0.05972579956,-5.829627228,7.881410522,9.803303148,0.0,1.0
245.1817563,-0.1206491089,-7.248376923,8.648714905,11.28511381,0.0,1.0
245.1917343,-0.7411088562,-8.536148987,8.764424286,12.2568436,0.0,1.0
245.2017113,-1.144669647,-10.18167709,7.679929504,12.80461379,0.0,1.0
245.2116893,-1.138981476,-11.21901993,6.551126862,13.04150874,0.0,1.0
245.2216673,-1.238524475,-11.92510162,5.911656647,13.36748577,0.0,1.0
245.2316443,-1.39000946,-12.39901611,5.209915924,13.52075999,0.0,1.0
245.2416223,-1.394500122,-12.12852859,4.689448242,13.07810236,0.0,1.0
245.2515993,-1.663341064,-11.05151825,3.721111908,11.77919492,0.0,1.0
245.2615813,-1.883533173,-10.00100281,2.884501648,10.57771734,0.0,1.0
245.2715593,-2.010768585,-9.220525818,2.334844666,9.72176868,0.0,1.0
245.2815363,-2.425106964,-8.621770935,1.98562088,9.173808812,0.0,1.0
245.2915143,-3.268752594,-8.632997589,0.1631607056,9.232551777,0.0,1.0
245.3014923,-3.864513702,-9.038354645,-11.75894714,15.32642029,0.0,1.0
245.3114693,-3.745810547,-8.747659149,-18.77440842,21.04830275,0.0,1.0
245.3214473,-4.152365112,-8.549471283,-14.6274321,17.44412122,0.0,1.0
245.3314253,-4.241280212,-8.744815063,-6.731352081,11.82249336,0.0,1.0
245.3414023,-4.179458771,-9.226513367,-0.8879534912,10.16783585,0.0,1.0
245.3513803,-3.674858093,-9.118288422,2.266137543,10.08876331,0.0,1.0
245.3613583,-2.822380829,-8.34978653,3.190465393,9.373571254,0.0,1.0
245.3713353,-2.210004272,-7.441175995,3.77934082,8.63357609,0.0,1.0
245.3813133,-1.839375,-6.848708038,4.054618378,8.168722812,0.0,1.0
245.3912903,-1.772613831,-6.815028076,3.232378235,7.74822796,0.0,1.0
245.4012683,-2.132914581,-7.004833374,2.208357697,7.648127805,0.0,1.0
245.4112463,-2.710263977,-7.270530853,1.637295227,7.93012518,0.0,1.0
245.4212233,-3.365451508,-7.620353394,1.301393738,8.431469347,0.0,1.0
245.4312013,-3.988006897,-8.073461151,0.9647438049,9.056252237,0.0,1.0
245.4411793,-4.532424774,-8.735983429,0.5722599792,9.858385379,0.0,1.0
245.4511563,-4.9448172,-9.401948547,0.3031196594,10.62731081,0.0,1.0
245.4611343,-5.243745575,-9.884544983,-0.00628692627,11.18933138,0.0,1.0
245.4711123,-5.42217453,-10.21071671,-0.680634613,11.58110425,0.0,1.0
245.4810893,-5.014422455,-10.49901718,-2.260449371,11.85257043,0.0,1.0
245.4910673,-4.298311615,-11.14941467,-4.863236847,12.90100783,0.0,1.0
245.5010443,-3.946543121,-11.72646469,-7.248077545,14.33944925,0.0,1.0
245.5110223,-3.924089813,-11.87660248,-7.747289429,14.71300992,0.0,1.0
245.5210003,-4.063450012,-12.43254639,-5.707481232,14.27078056,0.0,1.0
245.5309773,-4.199966125,-13.57212662,-2.184108124,14.37402743,0.0,1.0
245.5409553,-4.294569397,-15.04656052,0.786763916,15.66720483,0.0,1.0
245.5509333,-4.361480255,-16.93608124,2.076182556,17.61147046,0.0,1.0
245.5609103,-4.335584106,-18.80733994,1.839973755,19.38811049,0.0,1.0
245.5708883,-3.791016541,-19.2894873,-0.5400769043,19.66590476,0.0,1.0
245.5808663,-2.938988342,-17.36898102,-4.884941711,18.2806403,0.0,1.0
245.5908433,-2.919229431,-15.0348848,-8.210126953,17.37745223,0.0,1.0
245.6008213,-3.916306,-13.77001511,-8.333919525,16.56517381,0.0,1.0
245.6107983,-4.961881714,-14.16878586,-5.28176651,15.91451602,0.0,1.0
245.6207763,-5.531297607,-15.70848404,-0.2908451843,16.65641963,0.0,1.0
245.6307543,-5.12609024,-16.80181046,3.980223083,18.01165766,0.0,1.0
245.6407313,-4.591252441,-16.97949097,6.474186859,18.74294022,0.0,1.0
245.6507093,-4.822072449,-16.07836487,6.632557526,18.04874009,0.0,1.0
245.6606873,-5.984255676,-14.44481186,5.98500412,16.74168988,0.0,1.0
245.6706643,-7.322023773,-13.30328568,5.29344223,16.08135481,0.0,1.0
245.6806423,-8.57791214,-12.59765305,4.435725861,15.87315668,0.0,1.0
245.6906203,-9.818532257,-12.04575073,3.410058746,15.91012844,0.0,1.0
245.7005973,-10.57954971,-11.22919876,3.455863495,15.81027417,0.0,1.0
245.7105753,-11.21557709,-10.79450272,4.822521515,16.29623184,0.0,1.0
245.7205523,-11.86941742,-10.13422577,5.895490265,16.68359695,0.0,1.0
245.7305303,-12.653936,-8.726403351,5.503455505,16.32667248,0.0,1.0
245.7405083,-12.58582764,-5.730982361,3.676654358,14.30961227,0.0,1.0
245.7504853,-11.91432404,-1.73758667,3.025508423,12.41466979,0.0,1.0
245.7604633,-9.311237183,0.5174739075,-1.61469223,9.464362002,0.0,1.0
245.7704413,-6.0715242,0.1230441284,-7.895481262,9.960781613,0.0,1.0
245.7804183,-3.958069153,-0.9500743103,-8.460107117,9.388416535,0.0,1.0
245.7903963,-3.077151031,-2.053280182,-5.574557648,6.690329659,0.0,1.0
245.8003733,-2.700384521,-3.741319885,-2.645897827,5.318865138,0.0,1.0
245.8103513,-2.780018921,-5.876629486,0.1460961914,6.502662794,0.0,1.0
245.8203293,-3.143163757,-7.503596191,1.73758667,8.318812514,0.0,1.0
245.8303063,-3.368894348,-8.123457184,1.428928528,8.909648842,0.0,1.0
245.8402843,-3.491788788,-7.378007355,0.3100053406,8.168456695,0.0,1.0
245.8502623,-3.714525604,-5.978717194,-0.3162922668,7.045764724,0.0,1.0
245.8602393,-4.036655731,-5.133275299,0.5436694336,6.55291395,0.0,1.0
245.8702173,-3.884422302,-4.303101654,2.035467224,6.143984643,0.0,1.0
245.8801953,-3.442840576,-3.738625488,3.515589294,6.179792866,0.0,1.0
245.8901723,-3.117866364,-3.404220886,4.748575287,6.622595998,0.0,1.0
245.9001503,-2.768193512,-2.791395264,5.447172546,6.717623954,0.0,1.0
245.9101273,-2.283501434,-2.235900421,5.564378815,6.416848221,0.0,1.0
245.9201053,-1.605261841,-2.109413452,5.555996246,6.155939001,0.0,1.0
245.9300833,-0.90681427,-2.028282166,4.711452484,5.209033036,0.0,1.0
245.9400603,-0.1383123779,-1.969753876,3.378474426,3.913202026,0.0,1.0
245.9500383,0.4269122314,-1.873953094,2.389481049,3.066524733,0.0,1.0
245.9600163,0.6065386963,-1.554217987,1.622625732,2.327315408,0.0,1.0
245.9699933,0.3118016052,-1.120120697,1.001866608,1.534805302,0.0,1.0
245.9799713,-0.2145039368,-0.8614585876,0.6265969849,1.086621654,0.0,1.0
245.9899483,-0.7581733704,-1.19346817,0.6261479187,1.546368116,0.0,1.0
245.9999263,-1.20289856,-2.358196106,1.807042236,3.205223153,0.0,1.0
246.0099043,-3.143762512,-4.940476227,2.417921906,6.335447452,0.0,1.0
246.0198813,-8.907975769,-11.24401794,-13.4874028,19.68984525,0.0,1.0
246.0298593,-19.89123596,-21.81608322,-59.18033386,66.13557795,0.0,1.0
246.0398373,-27.18511826,-26.79473007,-34.23366074,51.27310934,0.0,1.0
246.0498143,-26.42859146,-25.58958618,-15.28246994,39.83530162,0.0,1.0
246.0597923,-20.19959473,-19.99018021,-7.953560486,29.51084642,0.0,1.0
246.0697693,-15.40970535,-14.00203262,-4.285139008,21.25743054,0.0,1.0
246.0797473,-13.29265778,-9.651479645,-4.732558594,17.09511395,0.0,1.0
246.0897253,-11.16603012,-6.445147247,-4.810696106,13.76092107,0.0,1.0
246.0997023,-9.596543884,-4.582869873,-1.822011108,10.78962813,0.0,1.0
246.1096803,-10.60769119,-4.22750885,3.19780014,11.85836706,0.0,1.0
246.1196583,-12.40290802,-4.311633911,5.530249786,14.2480166,0.0,1.0
246.1296353,-14.10950912,-5.1717453,5.857768707,16.12881432,0.0,1.0
246.1396133,-13.8086348,-5.646707611,5.390889587,15.86270445,0.0,1.0
246.1495913,-11.26886627,-5.793252869,4.337230682,13.39256121,0.0,1.0
246.1595683,-8.216413879,-5.156027985,3.508853302,10.31533485,0.0,1.0
246.1695463,-5.801785126,-4.557572479,3.160078583,8.026099563,0.0,1.0
246.1795233,-4.073479156,-4.744982758,2.679577789,6.803545468,0.0,1.0
246.1895013,-2.858306122,-4.789889374,3.192860413,6.427076452,0.0,1.0
246.1994793,-1.83697998,-5.106930084,4.556824036,7.086598311,0.0,1.0
246.2094563,-1.325792999,-5.912704468,6.010600891,8.534935517,0.0,1.0
246.2194343,-1.394200745,-7.58218277,7.449408875,10.72040036,0.0,1.0
246.2294113,-2.129172363,-9.410480804,8.668324127,12.97036496,0.0,1.0
246.2393893,-2.55309082,-10.87997498,7.65582962,13.54635949,0.0,1.0
246.2493673,-2.134112091,-11.94680649,6.927294617,13.97383378,0.0,1.0
246.2593443,-1.293609924,-12.40889557,6.594835968,14.11190906,0.0,1.0
246.2693189,-0.8041278076,-12.00623291,5.385351105,13.18325668,0.0,1.0
246.2792969,-0.5777984619,-10.75258987,4.14562912,11.53855627,0.0,1.0
246.2892739,-0.4119433594,-9.100026398,3.396137695,9.721827452,0.0,1.0
246.2992519,-0.4713697815,-7.731721802,2.704426117,8.204610418,0.0,1.0
246.3092289,-0.7282356262,-6.934629364,2.087259521,7.278465762,0.0,1.0
246.3192069,-1.144669647,-6.639293518,1.535955963,6.910111992,0.0,1.0
246.3291849,-1.804796906,-6.73269928,0.7424560547,7.009833982,0.0,1.0
246.3391619,-3.908821564,-7.319179688,-2.658771057,8.713113155,0.0,1.0
246.3491399,-5.384602661,-7.749385071,-8.854387207,12.94013476,0.0,1.0
246.3591179,-5.31918869,-7.946974182,-12.3315065,15.60494215,0.0,1.0
246.3690949,-4.743336182,-8.012388153,-10.56278458,14.08083876,0.0,1.0
246.3790729,-4.418511658,-8.505013733,-6.644382935,11.66217512,0.0,1.0
246.3890499,-4.261188812,-9.128167877,-2.932551727,10.49195113,0.0,1.0
246.3990279,-3.971092072,-9.035660248,-0.08202941895,9.870129542,0.0,1.0
246.4090059,-3.485801239,-8.407865753,1.591640167,9.239931559,0.0,1.0
246.4189829,-2.933898926,-7.954308929,2.89483017,8.958729551,0.0,1.0
246.4289609,-2.377505951,-7.801177368,3.57696167,8.90536679,0.0,1.0
246.4389389,-2.095791779,-7.828121338,3.1147229,8.681781246,0.0,1.0
246.4489159,-2.168540497,-7.87003418,2.283800812,8.476777219,0.0,1.0
246.4588939,-2.360591125,-7.897726593,1.889071655,8.456658177,0.0,1.0
246.4688709,-2.792892151,-8.133336639,1.723964996,8.770602417,0.0,1.0
246.4788489,-3.398981781,-8.749455414,1.484912109,9.503210571,0.0,1.0
246.4888269,-4.067641296,-9.736203461,1.201251984,10.61990442,0.0,1.0
246.4988039,-4.719236298,-10.83417023,0.876277771,11.84982272,0.0,1.0
246.5087819,-5.303471375,-11.92150909,0.1396595764,13.04870463,0.0,1.0
246.5187599,-5.719755707,-12.753479,-1.716779938,14.08240624,0.0,1.0
246.5287369,-5.732928314,-12.78087204,-5.938750305,15.2146611,0.0,1.0
246.5387149,-5.273833008,-12.17597992,-12.33165619,18.11456723,0.0,1.0
246.5486919,-4.841681671,-12.24049576,-15.44787598,20.29552882,0.0,1.0
246.5586699,-4.70022583,-13.46015945,-11.06603806,18.04785898,0.0,1.0
246.5686479,-4.806055756,-14.95884293,-3.66003891,16.13260792,0.0,1.0
246.5786249,-4.961881714,-16.30514328,1.103804626,17.07912036,0.0,1.0
246.5886029,-4.845423889,-17.71057068,3.045866089,18.61235468,0.0,1.0
246.5985799,-4.181404724,-18.55331818,2.678829346,19.20640225,0.0,1.0
246.6085579,-2.950664062,-17.34203705,-0.7372169495,17.60670771,0.0,1.0
246.6185359,-2.158511353,-14.92396545,-6.432872772,16.39407723,0.0,1.0
246.6285129,-2.684816895,-12.63717087,-11.27620102,17.14814972,0.0,1.0
246.6384909,-3.509601746,-12.72069717,-8.049211578,15.4571423,0.0,1.0
246.6484689,-3.415148163,-15.66267929,0.2580633545,16.03275885,0.0,1.0
246.6584459,-2.856659546,-17.24264374,5.138065338,18.21727154,0.0,1.0
246.6684239,-2.974015503,-17.07918365,6.566095734,18.53798521,0.0,1.0
246.6784009,-4.504133606,-16.0129509,6.407725067,17.82584518,0.0,1.0
246.6883789,-6.355184326,-15.33336411,6.2997995,17.75353194,0.0,1.0
246.6983569,-7.861950989,-14.99282227,6.198160858,18.02809449,0.0,1.0
246.7083339,-9.608369293,-14.52669159,4.66864151,18.03168718,0.0,1.0
246.7183119,-11.0229277,-13.9054834,2.940036163,17.98641755,0.0,1.0
246.7282899,-12.22807159,-12.60079651,2.627935181,17.75420657,0.0,1.0
246.7382669,-13.40986404,-11.71748337,3.766766968,18.201989,0.0,1.0
246.7482449,-15.16002457,-11.38652161,6.492299194,20.04068781,0.0,1.0
246.7582219,-16.50901932,-9.891730042,7.761060791,20.75158082,0.0,1.0
246.7681999,-14.81813553,-5.821094971,1.970652008,16.04199977,0.0,1.0
246.7781779,-10.54287598,-2.343077545,-8.628806305,13.82383972,0.0,1.0
246.7881549,-5.777236176,-1.643432465,-14.26413757,15.47717509,0.0,1.0
246.7981329,-3.850293274,-1.820963287,-7.980205078,9.045680664,0.0,1.0
246.8081099,-3.095712433,-1.784888306,-3.455115051,4.970621867,0.0,1.0
246.8180879,-2.337239685,-2.020348663,-0.1862127686,3.095023952,0.0,1.0
246.8280659,-1.605561218,-2.833008728,3.497776337,4.778933414,0.0,1.0
246.8380429,-1.198407898,-3.645219727,5.418582001,6.6396415,0.0,1.0
246.8480209,-1.491797791,-4.703518982,5.731281738,7.562813089,0.0,1.0
246.8579979,-1.645378418,-5.727988586,3.75359436,7.043194872,0.0,1.0
246.8679759,-1.830693054,-5.929170227,0.1288819885,6.206698575,0.0,1.0
246.8779539,-2.494861908,-5.660179596,-1.465153198,6.356779286,0.0,1.0
246.8879309,-3.157234497,-5.629194031,0.4529580688,6.470017474,0.0,1.0
246.8979089,-3.260519714,-5.468278656,2.910248108,7.00018602,0.0,1.0
246.9078869,-3.005599823,-4.950205994,4.354744263,7.245824126,0.0,1.0
246.9178639,-2.492766266,-4.550836487,4.968767395,7.184194166,0.0,1.0
246.9278419,-1.917662201,-3.923790436,5.216502228,6.803341473,0.0,1.0
246.9378189,-1.48012207,-3.07969574,5.047653351,6.095415617,0.0,1.0
246.9477969,-1.130149841,-2.319726105,4.487069092,5.176114073,0.0,1.0
246.9577749,-0.7488926697,-1.725461884,3.600163422,4.061925111,0.0,1.0
246.9677519,-0.5149291992,-1.005908203,2.753374329,2.9762516,0.0,1.0
246.9777299,-0.5731581116,-0.4085005188,2.188449097,2.298845872,0.0,1.0
246.9877069,-0.9880952454,-0.2107617188,1.455423431,1.771725171,0.0,1.0
246.9976849,-1.579066315,-0.4451742554,1.20050354,2.032938586,0.0,1.0
247.0076629,-2.289638672,-1.016985168,1.369352417,2.855140999,0.0,1.0
247.0176399,-2.880909119,-2.002984772,2.14473999,4.112358809,0.0,1.0
247.0276179,-3.703897705,-3.885769501,3.736380157,6.540535108,0.0,1.0
247.0375959,-7.143744507,-7.091203766,4.519102478,11.03360973,0.0,1.0
247.0475729,-16.37819138,-12.90601181,-2.710713043,21.02755951,0.0,1.0
247.0575509,-33.99505692,-24.57215195,-62.72376526,75.45677752,0.0,1.0
247.0675279,-35.97648651,-28.09986603,-33.24661331,56.47342162,0.0,1.0
247.0775059,-28.20599533,-23.31297043,-11.22351059,38.27584033,0.0,1.0
247.0874839,-21.13904114,-16.40857819,-10.20862106,28.64116692,0.0,1.0
247.0974609,-15.55654999,-9.386530609,-10.17449203,20.82386834,0.0,1.0
247.1074389,-10.13542328,-5.25482254,-6.904392242,13.34206121,0.0,1.0
247.1174159,-7.52245697,-3.926185455,-1.90374115,8.696351043,0.0,1.0
247.1273939,-8.285270691,-3.748055878,1.616338806,9.236134712,0.0,1.0
247.1373719,-10.33585648,-4.17257309,4.955145721,12.19810495,0.0,1.0
247.1473489,-12.23780136,-5.630391541,7.948321381,15.64100073,0.0,1.0
247.1573269,-11.78918427,-6.747668152,8.559500427,16.05555788,0.0,1.0
247.1673049,-9.766590271,-7.293433228,7.146738281,14.12997954,0.0,1.0
247.1772819,-7.372319183,-7.582781525,5.695506134,12.01201298,0.0,1.0
247.1872599,-5.310656433,-6.667734375,4.812941437,9.789083651,0.0,1.0
247.1972369,-3.705544281,-5.379662933,4.980143738,8.214235408,0.0,1.0
247.2072149,-2.090402985,-4.740492096,6.512357483,8.321829723,0.0,1.0
247.2171929,-0.4441264343,-4.71893692,9.283993835,10.42392227,0.0,1.0
247.2271699,1.140927429,-6.179749146,12.36743179,13.87243252,0.0,1.0
247.2371479,1.565744019,-7.679630127,12.27208008,14.56132627,0.0,1.0
247.2471249,0.1880090332,-8.384065247,9.016500092,12.31361731,0.0,1.0
247.2571029,-0.1155596924,-9.018296356,6.274202728,10.98674852,0.0,1.0
247.2670804,0.4655319214,-9.638606415,4.455933838,10.62896044,0.0,1.0
247.2770574,0.6550378418,-10.79659836,3.828887787,11.47414452,0.0,1.0
247.2870354,0.4501139832,-11.17680771,3.791465607,11.8109629,0.0,1.0
247.2970124,0.07424560547,-10.88611221,3.912863159,11.56820857,0.0,1.0
247.3069904,-0.5292993164,-10.04186783,3.764072571,10.73720213,0.0,1.0
247.3169684,-1.274449768,-9.315129089,3.147205353,9.914673656,0.0,1.0
247.3269454,-1.856439514,-8.640032959,2.33200058,9.13973544,0.0,1.0
247.3369234,-2.367776184,-8.402776337,1.645977173,8.883819847,0.0,1.0
247.3469014,-3.884272614,-9.516011353,-0.02814147949,10.27827017,0.0,1.0
247.3568784,-5.888903961,-10.91799591,-6.535559235,14.0212467,0.0,1.0
247.3668564,-5.617817688,-9.860744476,-13.01333862,17.26676401,0.0,1.0
247.3768334,-5.195845184,-8.905880127,-13.38591385,16.89657355,0.0,1.0
247.3868114,-4.75052124,-8.587043152,-8.82594635,13.19856398,0.0,1.0
247.3967894,-4.365671539,-9.198222198,-3.425776062,10.74254724,0.0,1.0
247.4067664,-4.096231842,-9.252110138,0.892893219,10.15765306,0.0,1.0
247.4167444,-3.586990814,-8.047115936,2.984793091,9.302234559,0.0,1.0
247.4267214,-2.885848846,-6.984475708,4.065096588,8.58114414,0.0,1.0
247.4366994,-2.319875793,-6.594087524,4.380939789,8.249633168,0.0,1.0
247.4466774,-2.017803955,-6.561904449,3.433709564,7.675967963,0.0,1.0
247.4566544,-1.980531464,-6.615942078,2.445314941,7.326169505,0.0,1.0
247.4666324,-2.237996063,-6.645879822,2.012115784,7.295543497,0.0,1.0
247.4766094,-2.72164032,-6.916966095,1.972597961,7.690441386,0.0,1.0
247.4865874,-3.524121552,-7.632627869,2.137854309,8.67449491,0.0,1.0
247.4965654,-4.688999176,-8.641230469,2.288441162,10.09428255,0.0,1.0
247.5065424,-5.918841705,-9.743238831,2.556234283,11.68322403,0.0,1.0
247.5165204,-6.975195007,-11.0296637,2.811303864,13.34954142,0.0,1.0
247.5264974,-7.590715027,-12.31908234,2.503394165,14.68488088,0.0,1.0
247.5364754,-7.911348267,-13.16048264,1.005309448,15.38825467,0.0,1.0
247.5464534,-7.466772766,-12.85377045,-5.057532806,15.70193454,0.0,1.0
247.5564304,-5.714217224,-11.54773636,-18.52861954,22.56794708,0.0,1.0
247.5664084,-4.169878693,-11.22979752,-24.07877792,26.89393588,0.0,1.0
247.5763864,-3.76422226,-12.9937294,-13.66972366,19.23194525,0.0,1.0
247.5863634,-4.347858582,-16.04498428,-1.665736084,16.70688695,0.0,1.0
247.5963414,-4.762646027,-19.24637695,5.083578644,20.4682338,0.0,1.0
247.6063184,-4.408482513,-21.4964978,6.945706329,23.0168845,0.0,1.0
247.6162964,-3.242557068,-22.06306961,6.565496979,23.24648291,0.0,1.0
247.6262744,-1.670975189,-21.33603149,4.185895386,21.80688236,0.0,1.0
247.6362514,-0.8150550842,-19.31658096,0.770148468,19.34910188,0.0,1.0
247.6462294,-1.010398865,-16.83564011,-0.8952882385,16.88967805,0.0,1.0
247.6562064,-2.615960083,-14.93040207,-0.4998106384,15.16607938,0.0,1.0
247.6661844,-4.558021545,-14.50199295,1.112636261,15.24209039,0.0,1.0
247.6761624,-5.687722321,-15.36120621,3.612288208,16.77395205,0.0,1.0
247.6861394,-6.205345917,-15.01332962,4.670288086,16.90319423,0.0,1.0
247.6961174,-7.167844391,-13.66672989,4.076772308,15.9617534,0.0,1.0
247.7060944,-8.228838043,-12.64151184,3.62141922,15.51245546,0.0,1.0
247.7160724,-9.447004852,-11.59279266,3.971990204,15.47305557,0.0,1.0
247.7260504,-10.42566971,-10.78252762,5.39059021,15.93787795,0.0,1.0
247.7360274,-10.90437424,-10.44647644,6.664291534,16.5059695,0.0,1.0
247.7460054,-11.28952332,-10.14036301,7.089108124,16.74920155,0.0,1.0
247.7559824,-11.99485657,-8.712182922,6.284680939,16.10204738,0.0,1.0
247.7659604,-12.77668076,-6.298003235,5.002447357,15.09744665,0.0,1.0
247.7759384,-12.49556534,-3.352727966,3.682192841,13.45133756,0.0,1.0
247.7859154,-11.44490021,-0.5153782654,2.112856293,11.64970031,0.0,1.0
247.7958934,-9.816586304,0.8249345398,-0.2065704346,9.853352475,0.0,1.0
247.8058704,-7.534432068,0.3109034729,-4.057462463,8.563137813,0.0,1.0
247.8158484,-6.053112488,-0.8553213501,-4.68031723,7.699163252,0.0,1.0
247.8258264,-5.401816864,-2.031575317,-3.874393158,6.951103944,0.0,1.0
247.8358034,-5.075645142,-3.307222595,-3.049009552,6.782061202,0.0,1.0
247.8457814,-4.979544983,-4.659211121,-2.114053802,7.13956161,0.0,1.0
247.8557594,-4.558919678,-5.824088745,-0.9136999512,7.452422823,0.0,1.0
247.8657364,-3.824247437,-6.677164764,-0.1910028076,7.69713452,0.0,1.0
247.8757144,-3.087479553,-6.76188858,-0.1531315613,7.434992699,0.0,1.0
247.8856914,-2.671644287,-5.937552795,0.2800675964,6.516951301,0.0,1.0
247.8956694,-2.575244751,-4.347708893,1.251846771,5.205917641,0.0,1.0
247.9056474,-2.444416809,-2.931803284,2.441423035,4.531135671,0.0,1.0
247.9156244,-2.359094238,-2.38933136,3.591331787,4.91649204,0.0,1.0
247.9256024,-2.278412018,-2.755320282,5.094954987,6.22426843,0.0,1.0
247.9355794,-2.044598236,-3.11128006,6.41086853,7.413479674,0.0,1.0
247.9455574,-1.681004333,-2.695295105,7.231911163,7.898792968,0.0,1.0
247.9555354,-0.9693841553,-2.465073853,6.880891113,7.373123982,0.0,1.0
247.9655124,0.02859054565,-2.17752182,5.810167694,6.204874481,0.0,1.0
247.9754904,0.818946991,-1.687740326,4.277953949,4.671191665,0.0,1.0
247.9854674,1.085542603,-1.343456268,2.863694916,3.34425269,0.0,1.0
247.9954454,0.7740403748,-1.057251434,2.537223816,2.855595172,0.0,1.0
248.0054234,0.2646496582,-1.221010895,2.921325073,3.177270406,0.0,1.0
248.0154004,-0.3285667419,-2.003733215,2.950514374,3.581680886,0.0,1.0
248.0253784,-1.052311707,-3.365002441,2.361339569,4.243409704,0.0,1.0
248.0353554,-2.194885712,-5.696254578,1.687740326,6.333506683,0.0,1.0
248.0453334,-6.415359192,-14.12417862,-23.88073975,28.47699047,0.0,1.0
248.0553114,-17.36808289,-29.95630554,-66.87119064,75.30462591,0.0,1.0
248.0652884,-22.09121109,-28.56704453,-29.77997223,46.80752489,0.0,1.0
248.0752664,-20.30138306,-24.06276123,-16.09408218,35.35791444,0.0,1.0
248.0852434,-16.61305298,-20.26261368,-8.980275421,27.69859904,0.0,1.0
248.0952214,-14.69583984,-16.77187271,-5.874384155,23.06017806,0.0,1.0
248.1051994,-14.09933029,-13.3957933,-4.523443451,19.96747189,0.0,1.0
248.1151764,-13.31166824,-9.896071014,-1.478774872,16.6529129,0.0,1.0
248.1251544,-14.39885742,-7.171736298,2.782863007,16.32498769,0.0,1.0
248.1351314,-16.1124939,-5.794001312,6.971003723,18.48723353,0.0,1.0
248.1451094,-16.73460022,-4.188140717,9.40045166,19.6457593,0.0,1.0
248.1550874,-14.65287918,-2.695295105,8.59901825,17.20216843,0.0,1.0
248.1650644,-11.17875366,-2.06869812,6.371650085,13.03234323,0.0,1.0
248.1750424,-7.814349976,-1.742676086,4.90035965,9.386932948,0.0,1.0
248.1850194,-5.639223175,-1.78668457,3.727997589,6.992213226,0.0,1.0
248.1949974,-3.877835999,-2.380499725,3.016976166,5.459536259,0.0,1.0
248.2049754,-2.229763184,-3.119662628,3.694467316,5.324774879,0.0,1.0
248.2149524,-1.230441284,-3.244353333,6.11373642,7.029764385,0.0,1.0
248.2249304,-0.5950126648,-3.527714081,9.154064026,9.828310887,0.0,1.0
248.2349074,-0.7536827087,-4.553830261,9.368418274,10.44378613,0.0,1.0
248.2448854,-1.578168182,-6.591243439,8.60246109,10.95159539,0.0,1.0
248.2548634,-1.825603638,-7.827672272,7.389832764,10.91855806,0.0,1.0
248.2648401,-1.896556091,-9.494755554,6.632856903,11.73635798,0.0,1.0
248.2748181,-1.528471527,-10.90736801,6.402635651,12.73972705,0.0,1.0
248.2847951,-1.339564362,-11.66149979,6.614295502,13.47345223,0.0,1.0
248.2947731,-1.156944122,-11.69353317,6.979685669,13.6672327,0.0,1.0
248.3047511,-1.271755371,-11.02187988,5.911207581,12.57145866,0.0,1.0
248.3147281,-1.605860596,-10.15578094,4.223766632,11.11570418,0.0,1.0
248.3247061,-2.042352905,-9.428443451,3.425925751,10.23736873,0.0,1.0
248.3346831,-2.849324799,-8.880582733,2.468217316,9.647564366,0.0,1.0
248.3446611,-3.477718048,-8.951385498,1.636696472,9.741693923,0.0,1.0
248.3546391,-4.053869934,-9.406888275,1.609153748,10.36883717,0.0,1.0
248.3646161,-5.60120224,-10.17718643,-0.742306366,11.64042993,0.0,1.0
248.3745941,-5.174589386,-9.721983032,-14.16863617,17.94557272,0.0,1.0
248.3845711,-4.695435791,-8.907526703,-19.75876144,22.17655977,0.0,1.0
248.3945491,-4.415517883,-8.473579102,-13.32319427,16.39529953,0.0,1.0
248.4045271,-4.314777374,-9.115294647,-4.282444611,10.95651551,0.0,1.0
248.4145041,-4.3316922,-9.759405212,1.081501007,10.73215691,0.0,1.0
248.4244821,-3.957320709,-8.845705261,3.243904266,10.21909016,0.0,1.0
248.4344591,-3.369343414,-7.48383728,4.026476898,9.141816652,0.0,1.0
248.4444371,-2.756218414,-6.301296387,5.419480133,8.756360032,0.0,1.0
248.4544151,-2.71340744,-6.098917236,5.053491211,8.372403765,0.0,1.0
248.4643921,-3.230132904,-6.903194733,3.392994232,8.342677385,0.0,1.0
248.4743701,-3.713028717,-7.902067566,2.381996613,9.050036571,0.0,1.0
248.4843471,-4.458328857,-8.951086121,2.161056061,10.23077721,0.0,1.0
248.4943251,-5.438789978,-9.854158173,2.181563416,11.46490683,0.0,1.0
248.5043031,-6.3979953,-10.63972458,1.667532349,12.52672132,0.0,1.0
248.5142801,-7.014114075,-11.4848671,-0.5195695496,13.46736503,0.0,1.0
248.5242581,-6.796316986,-12.07209595,-6.442153473,15.27831033,0.0,1.0
248.5342351,-5.157225494,-11.60865967,-16.33972137,20.69648397,0.0,1.0
248.5442131,-3.835474091,-11.43891266,-18.34644836,21.95795418,0.0,1.0
248.5541911,-3.99115036,-12.59615616,-9.065897369,16.02444777,0.0,1.0
248.5641681,-4.564009094,-13.94515091,-0.226179657,14.67475963,0.0,1.0
248.5741461,-4.689298553,-15.15747986,4.201612701,16.41317355,0.0,1.0
248.5841231,-4.541555786,-16.39450745,5.894143066,18.0040697,0.0,1.0
248.5941011,-4.503834229,-17.99797302,6.159092102,19.5485542,0.0,1.0
248.6040791,-4.183650055,-18.63579666,4.416865082,19.60368695,0.0,1.0
248.6140561,-3.380270691,-17.04250992,-1.275497589,17.42125909,0.0,1.0
248.6240341,-3.060685272,-14.49750229,-9.472002869,17.58590928,0.0,1.0
248.6340111,-3.805985413,-11.88663162,-14.99267258,19.50788987,0.0,1.0
248.6439891,-5.221891022,-11.48860931,-11.95967972,17.38649559,0.0,1.0
248.6539671,-6.280489655,-14.81439331,-2.802023163,16.33285441,0.0,1.0
248.6639441,-6.190077667,-17.11316299,3.876339111,18.60654224,0.0,1.0
248.6739221,-5.645959167,-17.4129895,6.988068237,19.59393161,0.0,1.0
248.6838991,-5.725443878,-16.82980225,7.868237915,19.44047631,0.0,1.0
248.6938771,-6.790479126,-15.24504776,7.614665222,18.34407846,0.0,1.0
248.7038541,-8.168812866,-13.87255188,6.664890289,17.42406273,0.0,1.0
248.7138321,-9.254056091,-13.18233719,5.650150452,17.06856081,0.0,1.0
248.7238101,-10.82818268,-12.98504745,5.868845673,17.89704856,0.0,1.0
248.7337871,-11.99036591,-13.23727295,6.964716797,19.17032993,0.0,1.0
248.7437651,-12.83910095,-12.84134628,7.059769135,19.48289064,0.0,1.0
248.7537421,-13.06453217,-11.67287613,5.9826091,18.51295896,0.0,1.0
248.7637201,-13.61179413,-9.855804749,4.780758362,17.47207707,0.0,1.0
248.7736981,-14.21264465,-6.6156427,3.790717163,16.12871765,0.0,1.0
248.7836751,-13.25837906,-2.095193024,1.361718292,13.49180217,0.0,1.0
248.7936531,-9.330547028,-0.2067201233,-9.687704315,13.45189414,0.0,1.0
248.8036301,-5.620512085,-1.283431091,-9.840237122,11.40471911,0.0,1.0
248.8136081,-4.030219116,-1.698517914,-5.552703094,7.068248785,0.0,1.0
248.8235861,-3.290906525,-2.106719055,-3.254681854,5.085399188,0.0,1.0
248.8335631,-2.971620483,-3.099754028,-0.5384303284,4.327691134,0.0,1.0
248.8435411,-3.160078583,-4.50368454,2.26299408,5.948984223,0.0,1.0
248.8535181,-3.557801514,-5.309608612,2.975811768,7.050202189,0.0,1.0
248.8634961,-4.155658264,-5.731730804,2.324216766,7.451457388,0.0,1.0
248.8734741,-4.644391937,-5.310656433,1.159039764,7.149602884,0.0,1.0
248.8834511,-4.750670929,-4.152814178,-0.1924996948,6.312827893,0.0,1.0
248.8934291,-4.543651428,-3.399580536,0.1754351807,5.6773844,0.0,1.0
248.9034061,-4.205654297,-2.875819702,1.61349472,5.344270973,0.0,1.0
248.9133841,-3.776646423,-2.549947357,3.071612549,5.495461162,0.0,1.0
248.9233621,-3.420836334,-2.625540161,4.762945404,6.425047182,0.0,1.0
248.9333391,-3.057841187,-2.696941681,6.45068573,7.631201317,0.0,1.0
248.9433171,-2.423011322,-2.531835022,7.133715363,7.948022856,0.0,1.0
248.9532941,-1.757046204,-2.510279846,7.139702911,7.769432021,0.0,1.0
248.9632721,-0.8283773804,-2.31673233,5.954168243,6.442482227,0.0,1.0
248.9732501,0.1490899658,-2.116897888,4.455185394,4.934790916,0.0,1.0
248.9832271,0.9117539978,-1.900747375,3.141966248,3.78366064,0.0,1.0
248.9932051,1.184337158,-1.708696747,2.359094238,3.144459366,0.0,1.0
249.0031821,0.8635542297,-1.544039154,2.255659332,2.866667375,0.0,1.0
249.0131601,0.237406311,-1.689237213,2.48528183,3.014383833,0.0,1.0
249.0231381,-0.4665797424,-2.508333893,2.341580658,3.463009609,0.0,1.0
249.0331151,-0.9633966064,-4.04144577,1.944007416,4.587001392,0.0,1.0
249.0430931,-2.247127075,-7.418872375,1.683249664,7.932375234,0.0,1.0
249.0530701,-9.43787384,-17.03757019,-38.09877319,42.78865246,0.0,1.0
249.0630481,-20.62530945,-28.53650803,-60.76344177,70.22771202,0.0,1.0
249.0730261,-23.15474945,-27.22688141,-21.90245361,41.91852774,0.0,1.0
249.0830031,-21.15176468,-23.88478134,-12.25576401,34.17723921,0.0,1.0
249.0929811,-17.43409561,-19.26074707,-7.082072754,26.92730625,0.0,1.0
249.1029581,-14.89926682,-14.9883316,-4.33049469,21.57293258,0.0,1.0
249.1129361,-12.55484207,-10.70229446,-4.656816101,17.14202737,0.0,1.0
249.1229141,-9.752220154,-5.874384155,-3.717968445,11.97653859,0.0,1.0
249.1328911,-9.543554077,-2.732417908,1.24960144,10.00535036,0.0,1.0
249.1428691,-11.64653091,-2.007026367,5.277874603,12.94317571,0.0,1.0
249.1528461,-13.92419449,-2.340083771,6.098318481,15.3801389,0.0,1.0
249.1628241,-15.93616058,-4.136049042,5.832022247,17.4665566,0.0,1.0
249.1728021,-16.63251251,-5.302722931,5.361400909,18.26209086,0.0,1.0
249.1827791,-14.57474167,-5.449866943,4.502786407,16.19874161,0.0,1.0
249.1927571,-10.71876022,-4.498445435,2.915337524,11.9844493,0.0,1.0
249.2027341,-6.349196777,-3.535348206,3.851490784,8.224656097,0.0,1.0
249.2127121,-3.863316193,-3.507506104,2.986589355,6.012281351,0.0,1.0
249.2226901,-3.001109161,-3.907324677,1.386865997,5.118323907,0.0,1.0
249.2326671,-1.738634491,-4.333338776,2.563119965,5.326373888,0.0,1.0
249.2426451,-0.6827302551,-4.798870697,5.15887207,7.078788145,0.0,1.0
249.2526221,-0.1782792664,-5.498366089,6.576274567,8.573867291,0.0,1.0
249.2626007,-0.5550457764,-6.340215454,6.800059204,9.31381839,0.0,1.0
249.2725787,-1.153950348,-7.834108887,6.73733963,10.3969519,0.0,1.0
249.2825557,-1.26247467,-9.281748505,6.214177551,11.24102754,0.0,1.0
249.2925337,-0.9632469177,-9.835447083,6.319109344,11.73008981,0.0,1.0
249.3025107,-0.5179229736,-11.0760672,7.362888794,13.31013299,0.0,1.0
249.3124887,-0.4951702881,-11.92076065,8.27015213,14.5170639,0.0,1.0
249.3224667,-0.6276448059,-12.33629654,8.778195648,15.1537081,0.0,1.0
249.3324437,-1.07416626,-12.00069443,7.924071808,14.42086731,0.0,1.0
249.3424217,-1.61828476,-11.04343506,5.89025116,12.62027584,0.0,1.0
249.3523987,-2.09444458,-10.13602203,3.868704987,11.04954836,0.0,1.0
249.3623767,-2.571352844,-9.719737701,2.898871765,10.46368071,0.0,1.0
249.3723547,-3.129242706,-9.417067108,2.316283264,10.19011683,0.0,1.0
249.3823317,-3.500770111,-9.223220215,1.700613556,10.01075766,0.0,1.0
249.3923097,-4.387077026,-9.530680847,-1.14317276,10.55401185,0.0,1.0
249.4022867,-4.535717926,-9.051227875,-13.8670134,17.16949399,0.0,1.0
249.4122647,-3.869752808,-8.645571442,-22.38744507,24.3088171,0.0,1.0
249.4222427,-3.559747467,-8.587941284,-17.44307693,19.76576511,0.0,1.0
249.4322197,-3.718716888,-9.211245117,-7.502099304,12.44818806,0.0,1.0
249.4421977,-3.77470047,-9.784702606,-0.3276686096,10.49267056,0.0,1.0
249.4521747,-3.391647034,-9.469009094,3.971391449,10.81375757,0.0,1.0
249.4621527,-2.974614258,-8.74286911,5.296585693,10.64612184,0.0,1.0
249.4721307,-2.470462646,-7.717351685,5.812413025,9.972203763,0.0,1.0
249.4821077,-2.255210266,-7.201224976,5.03492981,9.071611361,0.0,1.0
249.4920857,-2.176174622,-7.350165253,3.65180603,8.490957102,0.0,1.0
249.5020627,-2.261197815,-7.536677399,2.841840363,8.366037199,0.0,1.0
249.5120407,-2.643502808,-7.714657288,2.246079254,8.458659242,0.0,1.0
249.5220187,-3.143612823,-8.206235046,1.809137878,8.972044086,0.0,1.0
249.5319957,-3.819008331,-9.150621185,1.299747162,10.00040176,0.0,1.0
249.5419737,-4.608766022,-10.40366547,0.1011895752,11.37924509,0.0,1.0
249.5519517,-5.157075806,-11.49789001,-2.38813385,12.82575881,0.0,1.0
249.5619287,-5.356910248,-11.4874118,-7.248526611,14.60131006,0.0,1.0
249.5719067,-5.037923584,-10.83656525,-13.03474411,17.68378846,0.0,1.0
249.5818837,-4.915029144,-11.12306946,-12.64749939,17.54535342,0.0,1.0
249.5918617,-5.228627014,-12.54720795,-5.67380127,14.72966356,0.0,1.0
249.6018397,-5.469176788,-14.10786255,0.4766088867,15.13838949,0.0,1.0
249.6118167,-5.55090683,-15.74306213,3.065325623,16.97211811,0.0,1.0
249.6217947,-5.489684143,-17.21076004,3.527564392,18.40626534,0.0,1.0
249.6317717,-5.019062805,-17.77478714,1.933379517,18.57072981,0.0,1.0
249.6417497,-3.903582458,-16.88907898,-2.790347443,17.55747657,0.0,1.0
249.6517277,-2.895279236,-15.04461456,-9.341324615,17.94389631,0.0,1.0
249.6617047,-2.84453476,-13.30208817,-12.94268555,18.77631585,0.0,1.0
249.6716827,-3.671115875,-14.00547546,-9.256750488,17.18481493,0.0,1.0
249.6816597,-4.348906403,-16.52982605,-1.521735535,17.15994799,0.0,1.0
249.6916377,-4.311334534,-17.6054892,4.117038574,18.58738448,0.0,1.0
249.7016157,-4.148173828,-17.19609055,6.873256989,18.97773795,0.0,1.0
249.7115927,-4.499942322,-16.30185013,7.676336975,18.5721821,0.0,1.0
249.7215707,-5.883664856,-14.73984833,7.491920471,17.55019981,0.0,1.0
249.7315487,-7.695946198,-13.34100723,6.91516983,16.88282073,0.0,1.0
249.7415257,-9.141340485,-12.26070374,6.03290451,16.44034363,0.0,1.0
249.7515037,-10.65738785,-11.92091034,4.319567413,16.56341395,0.0,1.0
249.7614807,-12.81664764,-11.886931,2.872077484,17.71480777,0.0,1.0
249.7714587,-14.92396545,-12.2160965,3.727099457,19.64304021,0.0,1.0
249.7814367,-16.92126205,-12.41188934,5.798192596,21.77161326,0.0,1.0
249.7914137,-18.77934814,-11.66389481,7.432194672,23.32269016,0.0,1.0
249.8013917,-19.27751221,-8.485554199,6.635850677,22.08306186,0.0,1.0
249.8113687,-17.26809082,-3.10304718,4.609813843,18.14018319,0.0,1.0
249.8213467,-12.60259277,0.1222956848,-1.384920044,12.67904982,0.0,1.0
249.8313247,-7.381150818,0.1701960754,-9.638157349,12.14102266,0.0,1.0
249.8413017,-3.752247162,-0.9111552429,-10.33106644,11.02907505,0.0,1.0
249.8512797,-2.21733902,-1.463806,-6.107449493,6.660349814,0.0,1.0
249.8612577,-1.254690857,-1.848506012,-3.112327881,3.831162808,0.0,1.0
249.8712347,-0.7725434875,-2.480042725,-0.6571334839,2.679414072,0.0,1.0
249.8812127,-0.8223898315,-3.442541199,1.294657745,3.768760223,0.0,1.0
249.8911897,-1.434916077,-4.52703598,1.665885773,5.032714409,0.0,1.0
249.9011677,-2.417323151,-5.642067261,0.8723858643,6.199792842,0.0,1.0
249.9111457,-3.265309753,-6.364914093,0.02933898926,7.153687159,0.0,1.0
249.9211227,-3.974684601,-5.678591309,-1.29765152,7.051837803,0.0,1.0
249.9311007,-4.477339325,-4.793032837,-1.092577972,6.649320103,0.0,1.0
249.9410787,-4.4896138,-4.478237457,0.8655001831,6.400026044,0.0,1.0
249.9510557,-3.949985962,-4.207300873,2.585273895,6.323559982,0.0,1.0
249.9610337,-3.161126404,-4.096531219,4.197421417,6.662779805,0.0,1.0
249.9710107,-2.513273621,-4.264332275,5.41753418,7.338307069,0.0,1.0
249.9809887,-1.875300293,-3.919150085,5.552703094,7.050460995,0.0,1.0
249.9909667,-1.229692841,-3.374732208,4.435576172,5.707477371,0.0,1.0
215.008925,-14.4455603,-4.814438324,8.906628571,17.64032486,0.0,2.0
215.018903,-15.0720076,-5.653144226,9.568252716,18.72631605,0.0,2.0
215.028881,-13.7514537,-5.434898071,8.824000397,17.21927928,0.0,2.0
215.038859,-10.76710968,-4.170627136,6.529421997,13.26492115,0.0,2.0
215.048837,-7.563022614,-3.14286438,4.75171875,9.46867143,0.0,2.0
215.058814,-4.926704865,-2.957849121,4.503085785,7.300621469,0.0,2.0
215.068792,-3.059487762,-2.792293396,5.626799011,6.987004715,0.0,2.0
215.07877,-1.982926483,-3.101101227,8.239465942,9.024279765,0.0,2.0
215.088748,-1.665287018,-4.023483124,9.546398163,10.49263147,0.0,2.0
215.098726,-1.649270325,-6.239175568,9.306746521,11.32532274,0.0,2.0
215.108703,-1.790426788,-9.379794617,8.10983551,12.52819249,0.0,2.0
215.118681,-2.543211365,-11.07052872,4.912484436,12.37566295,0.0,2.0
215.128659,-3.219654694,-11.83932999,2.981499939,12.62637132,0.0,2.0
215.138637,-3.50675766,-12.80302597,2.265987854,13.46660775,0.0,2.0
215.148615,-3.962110748,-13.22170532,2.731519775,14.07028832,0.0,2.0
215.158592,-4.118385773,-12.94942154,3.1346315,13.94541266,0.0,2.0
215.16857,-3.84250946,-11.85534668,2.474803619,12.705856,0.0,2.0
215.178548,-3.424578552,-10.30921188,3.833079071,11.51955221,0.0,2.0
215.188526,-2.496358795,-8.811576233,-8.316405945,12.37086459,0.0,2.0
215.198504,-2.354453888,-9.042994995,-23.64572845,25.42517819,0.0,2.0
215.208482,-2.881507874,-8.456813965,-20.12924103,22.02287752,0.0,2.0
215.218459,-4.019142151,-9.059311066,-8.538693695,13.08181603,0.0,2.0
215.228437,-4.641098785,-9.323960724,0.4613406372,10.42539576,0.0,2.0
215.2384153,-4.335733795,-8.166567535,4.8850914,10.45731949,0.0,2.0
215.2483933,-3.480861511,-6.891668701,5.848338318,9.68579142,0.0,2.0
215.2583713,-2.838397522,-6.1710672,5.644312592,8.83158171,0.0,2.0
215.2683483,-2.528841248,-5.572911072,4.538112946,7.618848008,0.0,2.0
215.2783263,-2.469115448,-5.012326813,3.74311615,6.725389928,0.0,2.0
215.2883043,-2.780917053,-4.418511658,3.266207886,6.158316237,0.0,2.0
215.2982823,-3.047063599,-4.22870636,2.864443359,5.947401938,0.0,2.0
215.3082603,-3.480711823,-4.788093109,2.590063934,6.46139471,0.0,2.0
215.3182373,-4.208049316,-5.877228241,2.265838165,7.575190654,0.0,2.0
215.3282153,-5.261558533,-6.972650299,2.076931,8.978613076,0.0,2.0
215.3381933,-6.650669861,-8.04546936,2.291285248,10.68695349,0.0,2.0
215.3481713,-8.227490845,-9.20735321,3.687431946,12.88658656,0.0,2.0
215.3581493,-9.677974548,-10.29334488,5.125790863,15.02963313,0.0,2.0
215.3681263,-9.929900665,-10.68777466,3.450025635,14.99113509,0.0,2.0
215.3781043,-9.261690216,-10.500065,1.122366028,14.04599502,0.0,2.0
215.3880823,-8.289611664,-10.54497162,-4.522695007,14.15517072,0.0,2.0
215.3980603,-6.638545074,-10.86201233,-23.04023758,26.32311038,0.0,2.0
215.4080383,-5.463488617,-12.10143494,-29.12673065,32.01032449,0.0,2.0
215.4180153,-6.342909851,-14.04304733,-12.89388702,20.09208815,0.0,2.0
215.4279933,-7.543862457,-15.54292831,-0.2249821472,17.27839976,0.0,2.0
215.4379713,-7.563621368,-16.74343185,4.884941711,19.01087936,0.0,2.0
215.4479493,-7.266938324,-17.91773987,6.3979953,20.36634819,0.0,2.0
215.4579273,-6.606062622,-18.9431076,6.247857513,21.0123086,0.0,2.0
215.4679043,-5.261109467,-18.17685104,3.639681244,19.26978117,0.0,2.0
215.4778823,-4.145479431,-15.45296539,-3.3230896,16.34080976,0.0,2.0
215.4878603,-4.593946838,-12.74809021,-12.39332794,18.36335288,0.0,2.0
215.4978383,-6.315965881,-11.19521942,-14.28344742,19.21565073,0.0,2.0
215.5078163,-7.776927795,-12.61965729,-5.615422668,15.85147715,0.0,2.0
215.5177943,-8.212222595,-15.30716858,2.319277039,17.52509788,0.0,2.0
215.5277713,-7.997419281,-16.43821655,5.590574341,19.1161764,0.0,2.0
215.5377493,-8.274642792,-15.78497498,6.426735535,18.94566119,0.0,2.0
215.5477273,-9.366472321,-14.4654689,6.721173248,18.49742588,0.0,2.0
215.5577053,-10.5518573,-13.30627945,6.38631958,18.14342424,0.0,2.0
215.5676833,-11.8511554,-12.45739471,4.929399261,17.88674214,0.0,2.0
215.5776603,-12.952565,-11.90354645,3.995042267,18.03950445,0.0,2.0
215.5876383,-13.96221542,-11.62557449,4.39830368,18.69338164,0.0,2.0
215.5976163,-14.40544373,-11.395952,5.010530548,19.03916876,0.0,2.0
215.6075943,-14.32506088,-10.60020676,4.988226929,18.50551703,0.0,2.0
215.6175723,-14.49405945,-8.465495911,5.826184387,17.76757735,0.0,2.0
215.6275493,-13.62376923,-5.142106934,7.245532837,16.26487312,0.0,2.0
215.6375273,-10.79749649,-2.756218414,1.842518463,11.29502301,0.0,2.0
215.6475053,-7.35989502,-2.292931824,-13.38381821,15.44513454,0.0,2.0
215.6574833,-3.73608078,-3.118016052,-19.40160416,20.00256402,0.0,2.0
215.6674613,-3.064277802,-3.293900299,-9.542805634,10.55010507,0.0,2.0
215.6774383,-3.071313171,-4.130809937,-1.633852386,5.400558207,0.0,2.0
215.6874163,-2.958298187,-4.547543335,3.698808289,6.566038479,0.0,2.0
215.6973943,-2.81399826,-4.256847839,6.071673889,7.931239724,0.0,2.0
215.7073723,-2.768043823,-3.772155762,6.315666504,7.859953504,0.0,2.0
215.7173503,-2.601589966,-3.482508087,5.585784302,7.077931844,0.0,2.0
215.7273283,-2.504292297,-2.889291687,3.646267548,5.283441435,0.0,2.0
215.7373053,-2.500999146,-2.273771667,2.082619171,3.97018097,0.0,2.0
215.7472833,-2.445614319,-1.824705505,1.370100861,3.3448103,0.0,2.0
215.7572613,-2.427501984,-1.365909576,1.574725342,3.199724168,0.0,2.0
215.7672393,-2.388732605,-0.8845106506,2.272125092,3.413349525,0.0,2.0
215.7772173,-2.131268005,-0.6593788147,3.006198578,3.743569636,0.0,2.0
215.7871943,-1.675765228,-0.6396199036,3.577111359,4.001628218,0.0,2.0
215.7971723,-1.187480621,-0.6878196716,3.947441254,4.179174389,0.0,2.0
215.8071503,-0.7140151978,-0.8652008057,4.288731537,4.433013459,0.0,2.0
215.8171283,-0.1678010559,-1.092727661,4.302802277,4.442557638,0.0,2.0
215.8271063,0.4028123474,-1.377884674,3.886517944,4.143168557,0.0,2.0
215.8370833,0.7917036438,-1.720372467,3.391647034,3.884552186,0.0,2.0
215.8470613,0.7426057434,-2.050286407,2.853665771,3.591454577,0.0,2.0
215.8570393,0.3270698547,-2.59410553,2.308499451,3.487911682,0.0,2.0
215.8670173,-0.3089575195,-3.688479767,1.788780212,4.110969762,0.0,2.0
215.8769953,-1.372795258,-5.415588226,1.100062408,5.694146113,0.0,2.0
215.8869723,-4.017944641,-8.644822998,-4.760849762,10.65563392,0.0,2.0
215.8969503,-9.964179382,-15.9425972,-35.17475372,39.88376331,0.0,2.0
215.9069283,-18.0154866,-25.80783234,-47.72630264,57.16993905,0.0,2.0
215.9169063,-21.44290924,-28.10540451,-24.36423431,42.93399624,0.0,2.0
215.9268843,-20.46903442,-25.30697388,-16.10351257,36.31456201,0.0,2.0
215.9368613,-15.76042603,-19.04968597,-10.0342337,26.68271744,0.0,2.0
215.9468393,-10.81755478,-11.9586319,-4.84183136,16.83661781,0.0,2.0
215.9568173,-8.352331238,-8.125253448,-2.60697876,11.94058286,0.0,2.0
215.9667953,-7.779771881,-5.898184662,-2.086960144,9.983428042,0.0,2.0
215.9767733,-8.088879089,-4.557422791,-1.092727661,9.348482292,0.0,2.0
215.9867503,-10.17973114,-4.704566803,1.276096344,11.2866424,0.0,2.0
215.9967283,-13.86761215,-6.50217865,4.208947449,15.8840874,0.0,2.0
216.0067063,-16.81333649,-8.384963379,6.892566833,20.01258035,0.0,2.0
216.0166843,-17.44666946,-8.891360321,7.831564178,21.08971221,0.0,2.0
216.0266623,-14.94282623,-8.064479828,7.447911987,18.54171739,0.0,2.0
216.0366393,-11.24072479,-6.089037781,6.17690506,14.19804321,0.0,2.0
216.0466173,-8.087382202,-4.088148651,4.671635284,10.19523842,0.0,2.0
216.0565953,-5.647006989,-3.064128113,3.850442963,7.490225633,0.0,2.0
216.0665733,-3.183130646,-2.618804169,4.608616333,6.183025189,0.0,2.0
216.0765513,-1.979932709,-2.652035065,3.946393433,5.15048004,0.0,2.0
216.0865293,-1.896256714,-3.133733368,3.185375977,4.85414199,0.0,2.0
216.0965063,-1.785786438,-4.038751373,3.795357513,5.822824445,0.0,2.0
216.1064843,-2.181264038,-5.742358704,4.344415741,7.52373208,0.0,2.0
216.1164623,-2.94392807,-8.171058197,4.862787781,9.953874097,0.0,2.0
216.1264403,-3.460952911,-9.674531708,4.748425598,11.31911235,0.0,2.0
216.1364183,-3.705843658,-10.39318726,4.096231842,11.76990798,0.0,2.0
216.1463953,-3.485052795,-11.24701172,4.297413483,12.53429807,0.0,2.0
216.1563733,-3.083437958,-11.89037384,4.3409729,13.02814743,0.0,2.0
216.1663513,-2.659669189,-11.93123886,3.788471832,12.79768806,0.0,2.0
216.1763293,-2.294129333,-11.12830856,3.649111633,11.93391372,0.0,2.0
216.1863073,-1.792223053,-9.378148041,4.754413147,10.66612247,0.0,2.0
216.1962843,-2.287692719,-8.519982605,-1.993105316,9.04412021,0.0,2.0
216.2062623,-2.828368378,-8.961115265,-13.13668213,16.15158419,0.0,2.0
216.2162403,-2.995720367,-8.73583374,-18.44614105,20.62884513,0.0,2.0
216.2262183,-3.746708679,-8.649163971,-11.89052353,15.17334548,0.0,2.0
216.2362003,-4.624782715,-9.252409515,-4.453089752,11.26169194,0.0,2.0
216.2461773,-4.800217896,-9.461075592,1.174008636,10.67390929,0.0,2.0
216.2561553,-4.521647186,-8.448730774,4.327650604,10.51450925,0.0,2.0
216.2661333,-4.055815887,-7.234755249,5.394781494,9.894189881,0.0,2.0
216.2761113,-3.622916107,-6.349795532,5.135221252,8.933975696,0.0,2.0
216.2860893,-3.373235321,-5.868546295,4.304448853,8.021647716,0.0,2.0
216.2960663,-3.069217529,-5.608536987,3.617377625,7.345829038,0.0,2.0
216.3060443,-2.895428925,-5.401816864,3.152145081,6.891962906,0.0,2.0
216.3160223,-2.98135025,-5.39882309,2.902164917,6.816032664,0.0,2.0
216.3260003,-3.448528748,-5.755381622,2.668800201,7.220752222,0.0,2.0
216.3359783,-4.179309082,-6.594386902,2.636766815,8.240455221,0.0,2.0
216.3459553,-5.061724091,-7.860454102,2.61865448,9.709023676,0.0,2.0
216.3559333,-5.975124664,-9.065597992,2.695594482,11.18719855,0.0,2.0
216.3659113,-6.898554382,-9.933493195,2.586621094,12.36749564,0.0,2.0
216.3758893,-7.484735413,-10.52745804,1.981728973,13.06812483,0.0,2.0
216.3858673,-7.374564514,-10.87084396,0.2618055725,13.13879722,0.0,2.0
216.3958453,-6.837331696,-11.11289062,-4.708009644,13.87122192,0.0,2.0
216.4058223,-6.528823242,-11.0389444,-13.57257568,18.67347415,0.0,2.0
216.4158003,-6.85080368,-10.71846085,-17.52196289,21.65266952,0.0,2.0
216.4257783,-7.30480957,-11.14896561,-11.17935242,17.39648233,0.0,2.0
216.4357563,-7.101981354,-12.35889954,-3.274889832,14.6255065,0.0,2.0
216.4457343,-6.647975464,-13.79591125,1.372196503,15.37548921,0.0,2.0
216.4557113,-7.01471283,-15.09116776,3.587140503,17.0240159,0.0,2.0
216.4656893,-7.38788681,-16.96796494,4.144581299,18.96497455,0.0,2.0
216.4756673,-6.912026367,-18.54298965,3.312312012,20.06464514,0.0,2.0
216.4856453,-5.566474457,-18.06353668,-0.7521858215,18.91673277,0.0,2.0
216.4956233,-4.909790039,-15.95906296,-7.194339294,18.18120586,0.0,2.0
216.5056003,-5.601052551,-13.55551117,-11.72317154,18.77648592,0.0,2.0
216.5155783,-6.992259521,-11.97524734,-10.12868729,17.17231925,0.0,2.0
216.5255563,-7.768395538,-13.04133041,-2.01256485,15.31256626,0.0,2.0
216.5355343,-7.906408539,-15.27962585,4.602179718,17.80893934,0.0,2.0
216.5455123,-7.573500824,-16.48027908,6.649771729,19.31778914,0.0,2.0
216.5554893,-7.591014404,-15.63438812,7.052284698,18.7561273,0.0,2.0
216.5654673,-8.564440155,-13.79845596,7.111112366,17.7289295,0.0,2.0
216.5754453,-9.631571045,-12.63956589,6.440955963,17.14676938,0.0,2.0
216.5854233,-10.8199498,-12.34288284,5.398374023,17.27890369,0.0,2.0
216.5954013,-11.95818283,-12.25741058,5.12609024,17.87509586,0.0,2.0
216.6053783,-12.69135818,-11.72796158,5.060077515,18.00611118,0.0,2.0
216.6153563,-12.97352142,-10.75962524,4.905898132,17.55419124,0.0,2.0
216.6253343,-13.25942688,-8.626411285,4.519701233,16.45159786,0.0,2.0
216.6353123,-14.6738356,-5.652545471,6.803801422,17.13372217,0.0,2.0
216.6452903,-15.22454041,-2.136207733,5.123545532,16.20496013,0.0,2.0
216.6552683,-12.32791397,0.2486329651,-9.253307648,15.41632199,0.0,2.0
216.6652453,-7.321874084,0.04535568237,-22.59206955,23.74896848,0.0,2.0
216.6752233,-4.785099335,-0.916993103,-13.69996078,14.54052879,0.0,2.0
216.6852013,-4.883444824,-1.955832825,-3.916904755,6.558617099,0.0,2.0
216.6951793,-4.774321747,-2.740650787,1.686991882,5.757712783,0.0,2.0
216.7051573,-4.327351227,-3.514391785,5.436993713,7.787028888,0.0,2.0
216.7151343,-3.539389801,-4.551135864,6.947352905,9.028057942,0.0,2.0
216.7251123,-3.029999084,-4.995561676,6.194568329,8.51523386,0.0,2.0
216.7350903,-2.880160675,-4.881498871,3.340752869,6.579132653,0.0,2.0
216.7450683,-2.737806702,-4.425097961,0.4252656555,5.2209126,0.0,2.0
216.7550463,-2.723885651,-3.968846741,-0.9738748169,4.911184139,0.0,2.0
216.7650233,-2.692151642,-3.748504944,-0.1853146362,4.618799767,0.0,2.0
216.7750013,-2.456092529,-3.495680695,1.716630249,4.604236467,0.0,2.0
216.7849793,-2.232307892,-3.149750061,3.319796448,5.091676779,0.0,2.0
216.7949573,-1.873953094,-3.132236481,5.012476501,6.200606926,0.0,2.0
216.8049353,-1.37713623,-3.080144806,6.13708786,7.003402289,0.0,2.0
216.8149123,-0.6893165588,-2.863994293,6.232738953,6.893812841,0.0,2.0
216.8248903,-0.1321751404,-2.885848846,5.775888977,6.458056001,0.0,2.0
216.8348683,0.3113525391,-2.883753204,4.808151398,5.615273173,0.0,2.0
216.8448463,0.7455995178,-2.79648468,3.626508636,4.639807119,0.0,2.0
216.8548243,1.016985168,-2.620450745,2.634222107,3.852291142,0.0,2.0
216.8648013,1.063388672,-2.512375488,2.164498901,3.482510812,0.0,2.0
216.8747793,0.869841156,-2.658321991,2.057920532,3.472511535,0.0,2.0
216.8847573,0.4291575623,-3.418591003,2.138003998,4.054873827,0.0,2.0
216.8947353,-0.3460803223,-4.670886841,2.192191315,5.171330412,0.0,2.0
216.9047133,-2.381697235,-6.262077942,0.8348139954,6.751519553,0.0,2.0
216.9146913,-7.367379456,-9.925260315,-12.08272385,17.28529109,0.0,2.0
216.9246683,-16.19706802,-18.28911758,-54.35945892,59.59687583,0.0,2.0
216.9346463,-22.84848633,-26.01485184,-41.54505661,54.08158256,0.0,2.0
216.9446243,-24.09045364,-25.75768661,-18.96316589,40.04260278,0.0,2.0
216.9546023,-19.50818253,-20.39134598,-10.31624725,30.04664929,0.0,2.0
216.9645803,-12.77952484,-12.94433212,-3.921694794,18.60783919,0.0,2.0
216.9745573,-9.142388306,-8.081244965,-0.6774911499,12.22083378,0.0,2.0
216.9845353,-7.996820526,-5.866450653,-0.5330415344,9.932195884,0.0,2.0
216.9945133,-8.251740417,-4.324357452,-0.2576142883,9.319745298,0.0,2.0
217.0044913,-9.445058899,-3.27503952,2.496059418,10.30365635,0.0,2.0
217.0144693,-12.33345245,-5.15887207,5.700296173,14.5334575,0.0,2.0
217.0244463,-15.33411255,-8.068671112,7.620054016,18.92891134,0.0,2.0
217.0344243,-18.29929642,-10.09575577,8.343649292,22.50344457,0.0,2.0
217.0444023,-19.5602742,-11.03026245,8.359965363,23.96163678,0.0,2.0
217.0543803,-16.09617783,-9.29746582,6.697372742,19.75815307,0.0,2.0
217.0643583,-10.66397415,-5.949976959,4.191583557,12.91092341,0.0,2.0
217.0743353,-6.725065155,-4.17017807,4.093687134,8.909273866,0.0,2.0
217.0843133,-2.316133575,-3.669169922,6.940018158,8.184811219,0.0,2.0
217.0942913,-1.645079041,-4.024980011,4.682412872,6.389971788,0.0,2.0
217.1042693,-1.521286469,-4.989424438,2.790497131,5.915703085,0.0,2.0
217.1142473,-0.4445755005,-6.198310547,3.568279724,7.165844068,0.0,2.0
217.1242253,0.2930905151,-7.893535309,4.117637329,8.90779091,0.0,2.0
217.1342023,0.282462616,-9.140891418,3.605103149,9.830180556,0.0,2.0
217.1441803,-0.1658551025,-9.760752411,2.854713593,10.17099726,0.0,2.0
217.1541583,-0.2100132751,-10.93236603,3.247496796,11.40644414,0.0,2.0
217.1641363,-0.3737727356,-12.38419693,4.20176239,13.08292195,0.0,2.0
217.1741143,-0.8397537231,-12.90466461,4.644242249,13.74061648,0.0,2.0
217.1840913,-1.263971558,-12.29528183,4.368515625,13.10936719,0.0,2.0
217.1940693,-1.285826111,-10.81965042,4.240232391,11.6917815,0.0,2.0
217.2040473,-0.07170089722,-8.097860413,3.818858643,8.953444344,0.0,2.0
217.2140253,-0.4605921936,-7.044051819,-5.483397217,8.938593638,0.0,2.0
217.2240033,-1.604064331,-7.56227417,-14.30126038,16.25690811,0.0,2.0
217.2339769,-2.719095612,-8.151448975,-15.45625854,17.68433006,0.0,2.0
217.2439549,-3.758085022,-9.512718201,-9.289981384,13.81733566,0.0,2.0
217.2539329,-4.45683197,-10.52910461,-2.329306183,11.66837874,0.0,2.0
217.2639109,-4.484674072,-9.965975647,2.440225525,11.19766372,0.0,2.0
217.2738889,-4.156406708,-8.147706757,4.3608815,10.13302174,0.0,2.0
217.2838659,-3.742667084,-6.503825226,4.668491821,8.837540119,0.0,2.0
217.2938439,-3.634142761,-5.340145111,4.292024689,7.755360684,0.0,2.0
217.3038219,-3.546125793,-4.692142639,3.559148712,6.8745,0.0,2.0
217.3137999,-3.373834076,-4.427942047,3.100951538,6.372230974,0.0,2.0
217.3237779,-3.500470734,-4.277504883,3.012635193,6.294943541,0.0,2.0
217.3337549,-4.094734955,-4.749623108,2.794389038,6.865448573,0.0,2.0
217.3437329,-5.097649384,-5.797144775,2.927312622,8.256032702,0.0,2.0
217.3537109,-6.27749588,-7.169940033,3.262615356,10.07271828,0.0,2.0
217.3636889,-7.310198364,-8.504564667,3.064726868,11.62579765,0.0,2.0
217.3736669,-8.260721741,-9.622440033,2.614313507,12.94857177,0.0,2.0
217.3836439,-8.998088379,-10.66741699,2.334694977,14.14956467,0.0,2.0
217.3936219,-8.749156036,-11.18294495,0.3873944092,14.20408615,0.0,2.0
217.4035999,-7.46048584,-11.00541412,-6.343658295,14.73159834,0.0,2.0
217.4135779,-7.533833313,-11.31018036,-15.2206485,20.40458196,0.0,2.0
217.4235559,-8.693172455,-11.24087448,-15.31150955,20.88949093,0.0,2.0
217.4335339,-9.260193329,-10.45725403,-7.266788635,15.7452075,0.0,2.0
217.4435109,-8.969497833,-10.32687515,0.173638916,13.67941491,0.0,2.0
217.4534889,-8.006101227,-11.40328674,3.730093231,14.42380674,0.0,2.0
217.4634669,-7.408094788,-13.53545288,5.083878021,16.24605087,0.0,2.0
217.4734449,-6.990163879,-15.60924042,5.894741821,18.0902946,0.0,2.0
217.4834229,-6.19561615,-17.07648926,5.198240204,18.89481003,0.0,2.0
217.4933999,-5.114264832,-17.92148209,2.181713104,18.76419721,0.0,2.0
217.5033779,-3.674558716,-17.47211655,-4.908293152,18.51671083,0.0,2.0
217.5133559,-2.815794525,-15.48559753,-16.65272049,22.91387199,0.0,2.0
217.5233339,-3.931424561,-13.65385666,-18.3419577,23.20153687,0.0,2.0
217.5333119,-6.033952332,-13.38366852,-7.824828186,16.63607826,0.0,2.0
217.5432889,-7.392826538,-13.67541183,0.6357279968,15.55875712,0.0,2.0
217.5532669,-7.630382538,-13.55087082,4.564158783,16.20741753,0.0,2.0
217.5632449,-7.320377197,-12.97950897,6.373895416,16.20747106,0.0,2.0
217.5732229,-7.781867523,-12.55813522,6.999743958,16.34810808,0.0,2.0
217.5832009,-8.813522186,-12.22462875,6.302793274,16.33538872,0.0,2.0
217.5931779,-10.1285376,-11.94650711,5.357658691,16.55327196,0.0,2.0
217.6031559,-11.47408951,-12.07329346,4.791985016,17.33153961,0.0,2.0
217.6131339,-12.94807434,-12.19573883,4.55981781,18.36247841,0.0,2.0
217.6231119,-14.19587952,-12.38135284,4.71190155,19.41707779,0.0,2.0
217.6330899,-15.67061279,-11.85444855,4.740641785,20.21310813,0.0,2.0
217.6430679,-16.67966446,-11.1052565,4.415368195,20.51909854,0.0,2.0
217.6530449,-16.2079953,-9.538165283,-0.8937913513,18.8274951,0.0,2.0
217.6630229,-13.78408585,-7.976762238,-18.28792007,24.25031503,0.0,2.0
217.6730009,-10.60918808,-7.028933258,-18.53565491,22.48402271,0.0,2.0
217.6829789,-8.718769226,-6.950945435,-7.261399841,13.30640849,0.0,2.0
217.6929569,-6.95259201,-6.639143829,0.5545967102,9.629348055,0.0,2.0
217.7029339,-5.071603546,-6.080056458,4.853956146,9.287041473,0.0,2.0
217.7129119,-3.581003265,-5.594466248,6.197113037,9.08437378,0.0,2.0
217.7228899,-2.972967682,-5.142705688,7.419620819,9.504563732,0.0,2.0
217.7328679,-2.140997772,-5.025200043,8.866811371,10.41426189,0.0,2.0
217.7428459,-1.330732727,-5.485792236,8.870852966,10.5145993,0.0,2.0
217.7528229,-0.9650431824,-5.423072662,8.076604614,9.776122316,0.0,2.0
217.7628009,-0.4572990417,-5.106181641,6.267616425,8.097235887,0.0,2.0
217.7727789,-0.1351689148,-4.293671265,3.723806305,5.685122423,0.0,2.0
217.7827569,-0.4177812195,-3.345842285,3.650009766,4.969081709,0.0,2.0
217.7927349,-0.5218148804,-2.36238739,4.872068481,5.439688984,0.0,2.0
217.8027119,-0.1781295776,-1.947300568,6.140381012,6.444221335,0.0,2.0
217.8126899,0.3070115662,-1.764081573,6.928342438,7.15598832,0.0,2.0
217.8226679,0.7920030212,-1.433868256,7.028334503,7.216698196,0.0,2.0
217.8326459,1.310824127,-1.001716919,6.196364594,6.412225109,0.0,2.0
217.8426239,1.662592621,-0.762664032,4.355941772,4.724415241,0.0,2.0
217.8526009,1.74102951,-0.6101312256,1.714833984,2.518749583,0.0,2.0
217.8625789,1.502126312,-0.02409988403,-1.527274017,2.142318881,0.0,2.0
217.8725569,-0.01092727661,0.8416996765,-7.815397797,7.860599244,0.0,2.0
217.8825349,-4.02857254,1.500928802,-29.57908997,29.889877,0.0,2.0
217.8925129,-11.77571228,0.3088078308,-46.78520966,48.24539983,0.0,2.0
217.9024909,-15.77075455,-5.014871521,-28.23757965,32.72959731,0.0,2.0
217.9124679,-16.40019562,-11.18264557,-14.31069077,24.47067323,0.0,2.0
217.9224459,-17.76371017,-14.52953568,-8.217312012,24.37582866,0.0,2.0
217.9324239,-17.36493942,-15.17319717,-7.417824554,24.22377251,0.0,2.0
217.9424019,-15.61597641,-12.81215698,-6.316265259,21.16377312,0.0,2.0
217.9523799,-13.22380096,-8.198002167,-3.708538055,15.99466805,0.0,2.0
217.9623569,-9.14418457,-4.105961609,-2.041604462,10.22952496,0.0,2.0
217.9723349,-5.160967712,-1.366358643,-2.624192963,5.948858073,0.0,2.0
217.9823129,-3.004102936,0.7786807251,-5.102888489,5.972474282,0.0,2.0
217.9922909,-3.781286774,1.383273468,-7.399263153,8.423815665,0.0,2.0
218.0022689,-7.669301605,-1.230590973,-7.176975403,10.57551498,0.0,2.0
218.0122459,-14.08031982,-9.077273712,-21.31282974,27.10883649,0.0,2.0
218.0222239,-22.44492554,-17.89229279,-23.79481842,37.28407444,0.0,2.0
218.0322019,-20.11352371,-17.02379883,6.646628265,27.17611506,0.0,2.0
218.0421799,-13.4475856,-13.07037003,10.62565384,21.55404024,0.0,2.0
218.0521579,-6.77476181,-10.51727921,5.192402344,13.54516894,0.0,2.0
218.0621359,-2.641706543,-5.384003906,5.837860107,8.369391982,0.0,2.0
218.0721129,-1.265318756,-1.879940643,5.735323334,6.166777288,0.0,2.0
218.0820909,-0.2622546387,-0.9756710815,4.736899567,4.843441861,0.0,2.0
218.0920689,0.4508624268,-0.6144721985,4.093387756,4.163733461,0.0,2.0
218.1020469,0.3195854187,-0.8110134888,3.88696701,3.983514812,0.0,2.0
218.1120249,-0.7704478455,-0.9023236084,3.896696777,4.073330769,0.0,2.0
218.1220019,-1.963916016,-1.438957672,3.885021057,4.584861384,0.0,2.0
218.1319799,-3.089425507,-2.803220673,3.316353607,5.329239847,0.0,2.0
218.1419579,-4.468358002,-4.663851471,1.485660553,6.627587876,0.0,2.0
218.1519359,-6.167025604,-7.110962677,-0.07963439941,9.412987657,0.0,2.0
218.1619139,-8.206534424,-10.00728973,-0.710123291,12.9613784,0.0,2.0
218.1718909,-10.30726593,-12.80886383,-0.3373983765,16.44446902,0.0,2.0
218.1818689,-12.12613358,-15.59561874,0.9321116638,19.77714013,0.0,2.0
218.1918469,-12.70228546,-17.50340149,1.924398193,21.7122184,0.0,2.0
218.2018249,-11.34101624,-17.39143433,1.850002899,20.84473909,0.0,2.0
218.2118029,-8.511450348,-14.66635117,0.7030879211,16.97176998,0.0,2.0
218.2217799,-6.146667938,-11.65670975,-0.5420228577,13.18916971,0.0,2.0
218.2317579,-4.510121155,-9.535620575,-1.498982849,10.65439825,0.0,2.0
218.241739,-3.680695953,-8.033494263,-2.010918274,9.062469039,0.0,2.0
218.251717,-3.487148438,-7.216343536,-1.807491302,8.216011384,0.0,2.0
218.261695,-3.691024475,-7.064110107,-1.102307739,8.046141662,0.0,2.0
218.271673,-3.888763275,-7.179520111,-0.3849993896,8.174118507,0.0,2.0
218.28165,-4.175866241,-7.331304474,0.02125579834,8.437199533,0.0,2.0
218.291628,-4.532724152,-7.566166077,0.3062631226,8.825318942,0.0,2.0
218.301606,-5.050647125,-7.555538177,0.2932402039,9.092919408,0.0,2.0
218.311584,-5.471721497,-7.287595367,-0.0288899231,9.113156259,0.0,2.0
218.321562,-5.813760223,-6.912176056,-0.5917195129,9.051415234,0.0,2.0
218.331539,-6.228098602,-6.709946594,-1.312470703,9.248522847,0.0,2.0
218.341517,-6.795269165,-6.511309662,-2.244732056,9.675311806,0.0,2.0
218.351495,-7.22996521,-6.212680664,-3.892206116,10.29655605,0.0,2.0
218.361473,-7.269483032,-5.919739838,-5.570665741,10.90509148,0.0,2.0
218.371451,-7.102131042,-5.846242676,-6.467001801,11.24459564,0.0,2.0
218.381428,-6.674620056,-6.143374786,-6.344406738,11.06991886,0.0,2.0
218.391406,-6.136489105,-6.479875031,-5.586233368,10.52859355,0.0,2.0
218.401384,-5.590125275,-6.794820099,-4.527784424,9.895449083,0.0,2.0
218.411362,-5.209616547,-6.975793762,-3.445385284,9.363358529,0.0,2.0
218.42134,-4.93538681,-6.753805389,-2.036964111,8.609364262,0.0,2.0
218.431317,-4.591252441,-6.968009949,-1.351090393,8.453295622,0.0,2.0
218.441295,-4.166585541,-7.699389038,-1.67561554,8.913400814,0.0,2.0
218.451273,-4.021686859,-9.019942932,-2.295626221,10.13919304,0.0,2.0
218.461251,-4.285887451,-10.10788055,-1.598974915,11.09480966,0.0,2.0
218.471229,-4.94945755,-9.635462952,0.3245251465,10.83718565,0.0,2.0
218.481206,-5.260061646,-7.663314056,2.135309601,9.536989983,0.0,2.0
218.491184,-4.426594849,-6.196514282,3.395988007,8.338121236,0.0,2.0
218.501162,-2.788251801,-5.023403778,4.935536499,7.574196601,0.0,2.0
218.51114,-2.319426727,-4.540507965,4.771028595,6.982740635,0.0,2.0
218.521118,-2.934647369,-5.577252045,2.728526001,6.867514084,0.0,2.0
218.531096,-3.738176422,-7.466623077,-0.9792636108,8.407340862,0.0,2.0
218.541073,-5.428760834,-10.19065842,-8.956175537,14.61280409,0.0,2.0
218.551051,-6.841373291,-13.59877121,-16.90958633,22.75225433,0.0,2.0
218.561029,-7.152276764,-16.39106461,-13.50446732,22.40965639,0.0,2.0
218.571007,-7.259453888,-16.87845108,-4.216731262,18.85106374,0.0,2.0
218.580985,-8.18587738,-17.33844452,2.549348602,19.34242552,0.0,2.0
218.590962,-8.868757324,-17.00658463,5.603746948,19.98201083,0.0,2.0
218.60094,-8.326584778,-14.10741348,5.979016571,17.43845659,0.0,2.0
218.610918,-6.617438965,-11.10136459,4.041296082,13.54115462,0.0,2.0
218.620896,-5.579647064,-9.904902649,3.086880798,11.77999961,0.0,2.0
218.630874,-5.866001587,-10.43584854,2.689157867,12.26981986,0.0,2.0
218.640851,-6.528972931,-11.76448563,2.33080307,13.6551548,0.0,2.0
218.650829,-7.025939484,-13.15584229,2.116748199,15.06388512,0.0,2.0
218.660807,-7.694149933,-14.31188828,1.870061188,16.35625929,0.0,2.0
218.670785,-8.354277191,-15.17170029,1.117575989,17.35578904,0.0,2.0
218.680763,-8.687184906,-15.68677917,0.06376739502,17.93171182,0.0,2.0
218.690741,-8.508306885,-16.00082611,-1.338366852,18.17165232,0.0,2.0
218.700718,-8.005502472,-16.30304764,-3.354973297,18.46979366,0.0,2.0
218.710696,-7.703131256,-16.34091888,-5.641917572,18.92604277,0.0,2.0
218.720674,-7.889793091,-15.56059158,-6.052214355,18.46645998,0.0,2.0
218.730652,-8.158484344,-13.31121918,-3.363206177,15.9706161,0.0,2.0
218.74063,-8.166118469,-10.52551208,-0.9791139221,13.35779022,0.0,2.0
218.750607,-7.887098694,-8.30293396,0.6914122009,11.47271062,0.0,2.0
218.760585,-7.240892487,-6.753955078,2.273322601,10.15945022,0.0,2.0
218.770563,-6.259682922,-5.659580841,3.338357849,9.075192489,0.0,2.0
218.780541,-5.56138504,-4.646337891,3.493435364,8.044970479,0.0,2.0
218.790519,-5.139861603,-3.792663116,3.509152679,7.288115212,0.0,2.0
218.800496,-5.150639191,-3.057541809,4.074377289,7.244183617,0.0,2.0
218.810474,-5.167404327,-2.438728638,4.899910583,7.527189952,0.0,2.0
218.820452,-4.982089691,-1.976040802,4.951403503,7.296735681,0.0,2.0
218.83043,-4.664450226,-1.641486511,4.888085175,6.953053326,0.0,2.0
218.840408,-4.175117798,-1.513502655,4.844076691,6.571710424,0.0,2.0
218.850385,-3.582649841,-1.299896851,4.153412933,5.637016117,0.0,2.0
218.860363,-3.03404068,-0.9852511597,3.390150146,4.65502317,0.0,2.0
218.870341,-2.530188446,-0.6134243774,3.31605423,4.215964741,0.0,2.0
218.880319,-2.125579834,0.04206253052,3.693120117,4.261337242,0.0,2.0
218.890297,-1.816472626,0.5840853882,4.216731262,4.628342152,0.0,2.0
218.900274,-1.4837146,0.8270301819,4.496349792,4.806511145,0.0,2.0
218.910252,-1.185684357,0.9532177734,4.40893158,4.664027143,0.0,2.0
218.92023,-0.869841156,0.9226812744,4.139342194,4.329216808,0.0,2.0
218.930208,-0.7111711121,0.8387059021,3.713627472,3.873011869,0.0,2.0
218.940186,-0.682281189,0.826431427,3.121907959,3.300728076,0.0,2.0
218.950164,-0.7087760925,0.6929090881,2.766996002,2.939175638,0.0,2.0
218.960141,-0.9563612366,0.2025288391,2.722388763,2.892584541,0.0,2.0
218.970119,-1.459315338,-0.7032376099,2.744542694,3.186951363,0.0,2.0
218.980097,-2.33783844,-2.180665283,2.685864716,4.175483076,0.0,2.0
218.990075,-5.134023743,-4.783901825,3.96076355,8.058012432,0.0,2.0
219.000053,-16.67592224,-14.48717377,-20.14465897,29.89601765,0.0,2.0
219.01003,-26.12666931,-30.22125458,-75.71330338,85.60625786,0.0,2.0
219.020008,-24.24642929,-29.74748978,-28.95009796,48.07193207,0.0,2.0
219.029986,-16.83878357,-22.02909027,-7.260052643,28.66241118,0.0,2.0
219.039964,-11.21887024,-15.51089493,-2.615211639,19.32072056,0.0,2.0
219.049942,-8.683592377,-12.78925461,-1.40647522,15.52249924,0.0,2.0
219.059919,-8.265811157,-11.60252243,-1.106049957,14.2886496,0.0,2.0
219.069897,-9.995015259,-10.45396088,1.070424042,14.50280785,0.0,2.0
219.079875,-13.46195572,-11.37394775,4.225862274,18.12315787,0.0,2.0
219.089853,-17.41313919,-13.31316513,7.39147934,23.13205026,0.0,2.0
219.099831,-19.78301102,-13.73184448,9.633816376,25.93726076,0.0,2.0
219.109809,-17.54950562,-11.4835199,9.634564819,23.07988769,0.0,2.0
219.119786,-12.54107071,-7.486681366,7.867190094,16.58980206,0.0,2.0
219.129764,-7.99397644,-4.002526703,6.473438416,11.03763037,0.0,2.0
219.139742,-4.969665527,-1.992506561,6.884932709,8.721809231,0.0,2.0
219.14972,-2.957400055,-0.9997709656,7.977959747,8.567006408,0.0,2.0
219.159698,-1.503623199,-0.4990621948,8.759783936,8.90189645,0.0,2.0
219.169675,-0.7381150818,-0.4194277954,8.915759583,8.956087454,0.0,2.0
219.179653,-0.4861889648,-1.006357269,8.472082214,8.545484873,0.0,2.0
219.189631,-0.9168434143,-2.772684174,7.12817688,7.70319966,0.0,2.0
219.199609,-1.687440948,-4.935835876,5.608087921,7.659019708,0.0,2.0
219.209587,-1.924547882,-6.925049286,4.914879456,8.707251703,0.0,2.0
219.219564,-1.912423096,-8.724607086,4.513563995,10.00741679,0.0,2.0
219.229542,-2.358345795,-10.42956161,3.745062103,11.32974141,0.0,2.0
219.2395204,-2.82342865,-11.67916306,2.986439667,12.38117203,0.0,2.0
219.2494984,-3.282374268,-11.78140045,2.009271698,12.39405302,0.0,2.0
219.2594764,-3.577710114,-11.30179779,1.441352692,11.94186504,0.0,2.0
219.2694534,-5.420078888,-11.46016846,-2.682421875,12.95793592,0.0,2.0
219.2794314,-6.859785004,-10.66187851,-15.80039291,20.25795448,0.0,2.0
219.2894094,-6.912625122,-8.461604004,-22.07669128,24.63256841,0.0,2.0
219.2993874,-7.478897552,-7.193141785,-17.50609589,20.35039534,0.0,2.0
219.3093654,-7.56930954,-7.357050934,-10.29394363,14.74401305,0.0,2.0
219.3193434,-7.032675476,-7.38444397,-4.161795502,11.01404008,0.0,2.0
219.3293204,-5.785169678,-7.684120789,1.13149704,9.684739854,0.0,2.0
219.3392984,-4.684059448,-7.803871765,4.886438599,10.33044576,0.0,2.0
219.3492764,-3.750001831,-7.229516144,6.453529816,10.39117243,0.0,2.0
219.3592544,-2.837649078,-6.444099426,6.143075409,9.344305495,0.0,2.0
219.3692324,-2.368674316,-5.661826172,5.440735931,8.201737687,0.0,2.0
219.3792094,-2.148033142,-5.190007324,4.727319489,7.341510196,0.0,2.0
219.3891874,-2.219284973,-5.244044952,4.064946899,6.996358092,0.0,2.0
219.3991654,-2.78944931,-5.89953186,3.451522522,7.382310705,0.0,2.0
219.4091434,-3.721860352,-7.295678558,2.862647095,8.676054316,0.0,2.0
219.4191214,-4.849016418,-8.915460205,2.687062225,10.49850915,0.0,2.0
219.4290984,-5.93815155,-10.32657578,2.951861572,12.27246095,0.0,2.0
219.4390764,-6.670578461,-11.37349869,2.728526001,13.46469248,0.0,2.0
219.4490544,-6.719227295,-11.8312468,0.5170248413,13.61593665,0.0,2.0
219.4590324,-6.310427399,-12.13526459,-6.901398468,15.32042563,0.0,2.0
219.4690104,-6.186485138,-12.40679993,-19.81205063,24.180956,0.0,2.0
219.4789874,-7.359146576,-12.68537064,-21.60891403,26.11552856,0.0,2.0
219.4889654,-8.626560974,-13.39414673,-11.20524857,19.47763631,0.0,2.0
219.4989434,-8.598569183,-14.1973764,-2.84453476,16.84019794,0.0,2.0
219.5089214,-7.536228333,-14.8795079,1.821112976,16.77828792,0.0,2.0
219.5188994,-6.403683472,-15.79410599,3.937711487,17.49189863,0.0,2.0
219.5288774,-5.851332092,-17.01781128,4.159999237,18.47023502,0.0,2.0
219.5388544,-5.303920441,-17.71266632,1.527872772,18.55274954,0.0,2.0
219.5488324,-4.857997742,-16.09737534,-5.582640839,17.71698376,0.0,2.0
219.5588104,-5.248236237,-13.77989456,-10.50725006,18.10612553,0.0,2.0
219.5687884,-5.973029022,-13.47093704,-5.432353363,15.70521199,0.0,2.0
219.5787664,-6.48346756,-15.15643204,2.677332458,16.70092491,0.0,2.0
219.5887434,-6.23543335,-17.41269012,6.650220795,19.65471554,0.0,2.0
219.5987214,-6.947053528,-18.20125031,7.151079254,20.75295159,0.0,2.0
219.6086994,-8.841813354,-17.58887375,6.315067749,20.67428896,0.0,2.0
219.6186774,-10.30936157,-17.25222382,6.048921204,20.98836845,0.0,2.0
219.6286554,-11.70835236,-16.7892366,6.404880981,21.44729542,0.0,2.0
219.6386324,-12.47984802,-15.99858078,6.593039703,21.33469864,0.0,2.0
219.6486104,-12.55244705,-14.26503571,5.078339539,19.66836809,0.0,2.0
219.6585884,-12.49975662,-11.2631781,2.406994629,16.99696207,0.0,2.0
219.6685664,-13.63484619,-8.555009766,4.130061493,16.61790091,0.0,2.0
219.6785444,-15.93960342,-5.973478088,8.782087555,19.15407162,0.0,2.0
219.6885224,-15.04745865,-2.974614258,-0.3007246399,15.34160282,0.0,2.0
219.6984994,-10.59796143,-2.467618561,-24.88006165,27.15554078,0.0,2.0
219.7084774,-6.239325256,-2.990331573,-20.47113007,21.60875815,0.0,2.0
219.7184554,-5.065615997,-3.607947235,-6.900650024,9.28960276,0.0,2.0
219.7284334,-4.844825134,-3.676654358,0.9425898743,6.154558759,0.0,2.0
219.7384114,-4.524341583,-3.467988281,6.115832062,8.360622662,0.0,2.0
219.7483884,-4.236041107,-3.362757111,9.619146881,11.03540513,0.0,2.0
219.7583664,-3.971690826,-2.806813202,9.481582947,10.65612235,0.0,2.0
219.7683444,-4.047882385,-1.526525574,7.540868683,8.693694993,0.0,2.0
219.7783224,-3.859573975,-0.4921765137,5.155728607,6.459108797,0.0,2.0
219.7883004,-3.662284241,-0.2809657288,3.405568085,5.008908222,0.0,2.0
219.7982774,-3.441343689,-0.9527687073,1.961970062,4.074302532,0.0,2.0
219.8082554,-3.124003601,-1.337768097,1.397194519,3.674394441,0.0,2.0
219.8182334,-2.981949005,-1.604064331,2.668500824,4.311141252,0.0,2.0
219.8282114,-2.788850555,-1.554217987,4.015998688,5.130450899,0.0,2.0
219.8381894,-2.440225525,-1.452429657,4.631967773,5.43317384,0.0,2.0
219.8481664,-1.869163055,-1.457219696,4.456083527,5.047171502,0.0,2.0
219.8581444,-1.295106812,-1.581311646,3.908821564,4.410978825,0.0,2.0
219.8681224,-0.7978408813,-1.805994415,3.303330688,3.848397009,0.0,2.0
219.8781004,-0.2646496582,-2.173180847,2.779719543,3.538303997,0.0,2.0
219.8880784,0.3125500488,-2.511776733,2.377356262,3.472539804,0.0,2.0
219.8980564,0.5572911072,-2.85965332,2.094743958,3.588334257,0.0,2.0
219.9080334,0.4122427368,-3.177143097,1.840871887,3.694995485,0.0,2.0
219.9180114,-0.04805007935,-3.698209534,1.647623749,4.048916717,0.0,2.0
219.9279894,-0.7306306458,-4.503983917,1.05889801,4.684117554,0.0,2.0
219.9379674,-2.318079529,-5.984555054,-1.927242279,6.700944314,0.0,2.0
219.9479454,-6.948251038,-9.030421143,-21.45368683,24.29171416,0.0,2.0
219.9579224,-15.41150162,-14.54091202,-49.84005707,54.15702903,0.0,2.0
219.9679004,-21.52673492,-21.19412659,-33.15305786,44.85216342,0.0,2.0
219.9778784,-23.4659523,-23.98537216,-15.73003922,37.05918414,0.0,2.0
219.9878564,-19.94886612,-22.13866241,-11.16932327,31.82501242,0.0,2.0
219.9978344,-14.19812485,-15.35716461,-6.97609314,22.04756516,0.0,2.0
180.0069868,-10.44632675,-13.1649733,1.94939621,16.91870001,0.0,3.0
180.0169638,-10.99852844,-12.31653763,1.029559021,16.5446281,0.0,3.0
180.0269418,-10.94344299,-11.99515594,1.210682373,16.28215165,0.0,3.0
180.0369198,-10.9380542,-11.36511612,3.610192566,16.18148276,0.0,3.0
180.0468968,-12.76081375,-8.489745483,6.846013641,16.78636497,0.0,3.0
180.0568748,-13.16811676,-5.260510712,4.00866394,14.73572728,0.0,3.0
180.0668528,-11.84651505,-2.650388489,-3.812422028,12.72395534,0.0,3.0
180.0768308,-8.776549072,-0.4064048767,-17.69590118,19.75697085,0.0,3.0
180.0868078,-5.837111664,-0.3061134338,-14.65048416,15.77346709,0.0,3.0
180.0967858,-4.735252991,-1.128952332,-5.667963409,7.471476659,0.0,3.0
180.1067638,-4.309837646,-1.864073639,0.1712438965,4.698807885,0.0,3.0
180.1167408,-3.934568024,-2.640808411,3.615281982,5.960281739,0.0,3.0
180.1267188,-3.752396851,-3.393143921,5.949527893,7.80966004,0.0,3.0
180.1366968,-3.992048492,-3.776197357,7.779322815,9.524388752,0.0,3.0
180.1466738,-4.024081879,-3.885919189,8.081394653,9.82865924,0.0,3.0
180.1566518,-4.020639038,-4.10820694,6.954088898,9.02231982,0.0,3.0
180.1666298,-3.918701019,-4.257596283,4.927303619,7.600109522,0.0,3.0
180.1766068,-3.761078796,-4.381388855,3.227737885,6.615177538,0.0,3.0
180.1865848,-3.712130585,-4.267176361,2.653831329,6.247521773,0.0,3.0
180.1965628,-3.475921783,-3.615132294,3.09256897,5.891960334,0.0,3.0
180.2065355,-3.005749512,-3.090323639,3.901636505,5.814412932,0.0,3.0
180.2165135,-2.413281555,-2.604883118,4.614753571,5.822825297,0.0,3.0
180.2264915,-1.610351257,-2.044747925,4.780159607,5.442807283,0.0,3.0
180.2364685,-0.6732998657,-1.665137329,4.288581848,4.649510652,0.0,3.0
180.2464465,0.1695973206,-1.58774826,3.622317352,3.958647596,0.0,3.0
180.2564245,0.6265969849,-1.782792664,3.244503021,3.754700163,0.0,3.0
180.2664015,0.623303833,-1.949845276,3.06802002,3.68824499,0.0,3.0
180.2763795,0.309256897,-2.236798553,2.816842346,3.610195064,0.0,3.0
180.2863575,-0.228874054,-2.912792816,2.483485565,3.834637646,0.0,3.0
180.2963345,-1.288520508,-3.984863434,1.730251923,4.531356684,0.0,3.0
180.3063125,-3.462749176,-6.41086853,-0.3776646423,7.296060427,0.0,3.0
180.3162905,-8.954978027,-14.94791565,-36.06390472,40.05292795,0.0,3.0
180.3262675,-15.52631287,-27.27133896,-56.63083557,64.7444504,0.0,3.0
180.3362455,-17.79664169,-28.00990311,-24.18550598,41.06353403,0.0,3.0
180.3462235,-16.67547318,-24.08925613,-15.69620956,33.23754897,0.0,3.0
180.3562005,-13.65011444,-18.31800751,-8.901688843,24.51764849,0.0,3.0
180.3661785,-11.04867416,-13.02067337,-3.473826141,17.42637667,0.0,3.0
180.3761565,-10.323582,-10.57251434,-1.845961304,14.89167479,0.0,3.0
180.3861335,-10.52940399,-8.835227051,-1.611698456,13.8393337,0.0,3.0
180.3961115,-10.58553726,-6.700516205,-0.3959266663,12.53424407,0.0,3.0
180.4060895,-11.70296356,-5.692063293,2.499502258,13.25165847,0.0,3.0
180.4160665,-13.43022171,-6.070326691,5.553900604,15.75009629,0.0,3.0
180.4260445,-14.7774202,-6.570885773,6.504573669,17.43152793,0.0,3.0
180.4360225,-14.49016754,-6.409371643,6.116281128,16.9839305,0.0,3.0
180.4459995,-12.4283551,-4.900808716,5.208269348,14.33903784,0.0,3.0
180.4559775,-9.456285553,-3.024759979,4.005071411,10.70565768,0.0,3.0
180.4659555,-6.869365082,-1.973047028,3.027304688,7.761808093,0.0,3.0
180.4759335,-4.902155914,-1.807042236,2.201621704,5.669538992,0.0,3.0
180.4859105,-3.276536407,-1.997146912,2.136956177,4.392137101,0.0,3.0
180.4958885,-2.17871933,-2.363435211,2.828667755,4.281822647,0.0,3.0
180.5058665,-1.861678619,-2.837349701,4.37495224,5.53684095,0.0,3.0
180.5158435,-2.661166077,-3.614832916,6.631958771,8.00822696,0.0,3.0
180.5258215,-3.861070862,-5.689219208,7.851772156,10.43673365,0.0,3.0
180.5357995,-4.680616608,-8.422535248,7.919880524,12.47284167,0.0,3.0
180.5457765,-4.952301636,-10.75992462,7.072642365,13.79577977,0.0,3.0
180.5557545,-4.915178833,-12.15801727,6.466702423,14.62171697,0.0,3.0
180.5657325,-4.286635895,-12.83326309,5.547463989,14.62334591,0.0,3.0
180.5757095,-3.348237305,-12.61801071,4.620591431,13.84827616,0.0,3.0
180.5856875,-2.725981293,-11.91537186,3.364553375,12.67782631,0.0,3.0
180.5956655,-2.36118988,-11.01963455,2.343825989,11.5109115,0.0,3.0
180.6056425,-2.174677734,-10.12928604,1.71184021,10.50057407,0.0,3.0
180.6156205,-2.121089172,-9.378148041,1.341510315,9.708157903,0.0,3.0
180.6255985,-2.177821198,-8.962013397,1.052461395,9.282686265,0.0,3.0
180.6355755,-2.53318222,-8.812624054,2.148631897,9.417853997,0.0,3.0
180.6455535,-2.316283264,-9.714797974,-12.42655884,15.94245378,0.0,3.0
180.6555315,-2.599045258,-10.70962921,-27.30367172,29.44387345,0.0,3.0
180.6655085,-3.687731323,-10.26699966,-20.81825821,23.50341506,0.0,3.0
180.6754865,-4.555925903,-10.08991791,-8.811276855,14.14925807,0.0,3.0
180.6854645,-4.946763153,-9.79832428,-1.077908478,11.02903038,0.0,3.0
180.6954415,-4.55278244,-8.96171402,3.241509247,10.56160633,0.0,3.0
180.7054195,-3.659589844,-8.071515198,4.698579254,10.03088243,0.0,3.0
180.7153975,-2.887944489,-7.44297226,5.230722656,9.544554412,0.0,3.0
180.7253745,-2.319576416,-7.015610962,4.321213989,8.559913683,0.0,3.0
180.7353525,-1.864522705,-6.764732666,3.09720932,7.670121155,0.0,3.0
180.7453305,-1.830543365,-6.383026428,2.41971817,7.06745721,0.0,3.0
180.7553075,-2.221679993,-6.161936188,2.214345245,6.914379541,0.0,3.0
180.7652855,-2.595452728,-6.665339355,2.466121674,7.566034609,0.0,3.0
180.7752635,-3.208877106,-7.665709076,2.731819153,8.747732495,0.0,3.0
180.7852405,-4.188739471,-8.88911499,2.694396973,10.18929236,0.0,3.0
180.7952185,-5.24314682,-9.633816376,2.52509903,11.25509359,0.0,3.0
180.8051965,-5.747148743,-9.976753235,2.006277924,11.68719277,0.0,3.0
180.8151735,-5.994135132,-10.12419662,1.139430542,11.82063092,0.0,3.0
180.8251515,-6.501130829,-9.978250122,-0.1104702759,11.90975992,0.0,3.0
180.8351295,-7.358398132,-9.638307037,-5.504653015,13.31706388,0.0,3.0
180.8451065,-8.143066406,-9.858948212,-17.65473679,21.79903946,0.0,3.0
180.8550845,-8.236621857,-11.64638123,-22.66796173,26.7827673,0.0,3.0
180.8650625,-8.151598663,-14.33104843,-12.73806107,20.83472365,0.0,3.0
180.8750395,-7.74713974,-16.64628387,-2.576442261,18.54063094,0.0,3.0
180.8850175,-7.100933533,-18.5331102,2.329156494,19.98310288,0.0,3.0
180.8949955,-6.425538025,-19.99901184,4.35040329,21.45166712,0.0,3.0
180.9049725,-5.378764801,-20.86241638,3.422183533,21.8147397,0.0,3.0
180.9149505,-4.148622894,-19.26404022,-1.886377258,19.79577573,0.0,3.0
180.9249285,-3.550167389,-16.25529694,-6.549629974,17.88116383,0.0,3.0
180.9349065,-3.770509186,-14.9339946,-4.063450012,15.92961268,0.0,3.0
180.9448835,-4.449048157,-15.37976761,2.395468597,16.18856235,0.0,3.0
180.9548615,-4.874164124,-16.24077713,5.060376892,17.69541556,0.0,3.0
180.9648395,-5.930218048,-15.57391388,5.030588837,17.40750136,0.0,3.0
180.9748165,-7.713609467,-14.6831163,5.016817474,17.32807355,0.0,3.0
180.9847945,-9.529333649,-14.39376801,4.592449951,17.86279244,0.0,3.0
180.9947725,-11.2871283,-14.06220749,3.780388641,18.42379665,0.0,3.0
181.0047495,-13.0308522,-13.15913544,2.816692657,18.73231732,0.0,3.0
181.0147275,-13.95907196,-12.1111647,2.376158752,18.63282402,0.0,3.0
181.0247055,-14.493311,-11.40867554,3.425326996,18.76024537,0.0,3.0
181.0346825,-14.7269751,-10.57670563,4.767436066,18.74777171,0.0,3.0
181.0446605,-15.88751175,-7.728877716,6.971752167,18.99352281,0.0,3.0
181.0546385,-15.12260239,-3.693419495,5.422473907,16.48446765,0.0,3.0
181.0646155,-12.14020432,-0.9731263733,-0.8764274597,12.2106372,0.0,3.0
181.0745935,-7.798782349,-0.2929408264,-14.1948317,16.19876746,0.0,3.0
181.0845715,-4.10700943,-0.9330097961,-15.99004852,16.53540703,0.0,3.0
181.0945485,-3.024460602,-1.441352692,-7.92032959,8.599795365,0.0,3.0
181.1045265,-2.924767914,-2.075434113,-2.206262054,4.210615912,0.0,3.0
181.1145045,-2.673440552,-2.50279541,1.975292358,4.160895234,0.0,3.0
181.1244815,-2.326462097,-2.381996613,4.810995483,5.850812875,0.0,3.0
181.1344595,-2.410138092,-2.453847198,6.223308563,7.110534521,0.0,3.0
181.1444375,-2.847378845,-2.723735962,6.073021088,7.23932932,0.0,3.0
181.1544145,-3.249742126,-2.784958649,4.93778183,6.534409534,0.0,3.0
181.1643925,-3.730542297,-3.038381653,4.545298004,6.618794667,0.0,3.0
181.1743705,-3.855981445,-3.436853027,3.955674133,6.505990277,0.0,3.0
181.1843475,-3.546425171,-3.695964203,3.327879639,6.108360318,0.0,3.0
181.1943255,-2.847678223,-3.598217468,3.228486328,5.610665217,0.0,3.0
181.2043072,-2.250719604,-3.586841125,4.471351776,6.158259064,0.0,3.0
181.2142842,-1.938468933,-3.508104858,5.534141693,6.83309489,0.0,3.0
181.2242622,-1.440005493,-3.286116486,5.297334137,6.397962671,0.0,3.0
181.2342402,-0.7098239136,-2.908152466,4.529880066,5.429642176,0.0,3.0
181.2442172,0.08577163696,-2.627785492,3.684737549,4.526577534,0.0,3.0
181.2541952,0.6110293579,-2.435585175,2.7988797,3.760207387,0.0,3.0
181.2641732,0.6143225098,-2.206860809,2.317331085,3.25847359,0.0,3.0
181.2741502,0.1856140137,-2.098635864,2.229314117,3.067338665,0.0,3.0
181.2841282,-0.509690094,-2.661465454,2.222727814,3.504811163,0.0,3.0
181.2941062,-1.18179245,-3.768263855,2.123184814,4.483788536,0.0,3.0
181.3040832,-1.945055237,-5.65149765,2.259102173,6.389538965,0.0,3.0
181.3140612,-5.092410278,-9.747879181,-0.110919342,10.99845871,0.0,3.0
181.3240392,-12.38704102,-19.81279907,-38.45413422,44.99673578,0.0,3.0
181.3340162,-20.95567245,-31.93593887,-53.74184326,65.93352802,0.0,3.0
181.3439942,-23.71742935,-31.87486588,-25.96740051,47.46398023,0.0,3.0
181.3539722,-21.38168655,-24.74683868,-16.35244492,36.56480548,0.0,3.0
181.3639492,-14.96707581,-15.50715271,-7.654033356,22.87070987,0.0,3.0
181.3739272,-11.588302,-10.85108505,-3.196752319,16.19425872,0.0,3.0
181.3839052,-10.48300049,-8.338260498,-2.04175415,13.54948882,0.0,3.0
181.3938822,-9.121880951,-5.44328064,-0.3089575195,10.62701609,0.0,3.0
181.4038602,-9.133257294,-2.721340942,2.36478241,9.819077409,0.0,3.0
181.4138382,-10.63538361,-1.676363983,3.727398834,11.39364221,0.0,3.0
181.4238152,-12.18930222,-1.955383759,3.75479187,12.9035296,0.0,3.0
181.4337932,-13.21571777,-3.155288544,4.06255188,14.18151508,0.0,3.0
181.4437712,-13.45252533,-3.917353821,4.561314697,14.73504973,0.0,3.0
181.4537482,-12.74599457,-3.983516235,4.734055481,14.16827655,0.0,3.0
181.4637262,-10.39483383,-3.464246063,4.781656494,11.95482371,0.0,3.0
181.4737042,-7.768844604,-3.104843445,3.966451721,9.258927506,0.0,3.0
181.4836822,-5.697003021,-3.204236755,3.307671661,7.325549019,0.0,3.0
181.4936592,-4.118834839,-3.494483185,3.147953796,6.251865823,0.0,3.0
181.5036372,-3.004552002,-4.039948883,4.129462738,6.511603659,0.0,3.0
181.5136152,-3.056194611,-4.636907501,7.469467163,9.30774819,0.0,3.0
181.5235922,-3.784430237,-6.404731293,10.43135788,12.81232697,0.0,3.0
181.5335702,-4.259841614,-9.429042206,9.766290894,14.2279136,0.0,3.0
181.5435482,-4.448898468,-11.36781052,8.770262146,15.03121125,0.0,3.0
181.5535252,-4.290976868,-12.8450885,7.094496918,15.28857965,0.0,3.0
181.5635032,-3.433859253,-13.70998993,6.17570755,15.42383146,0.0,3.0
181.5734812,-2.245929565,-13.51255051,6.144422607,15.01289945,0.0,3.0
181.5834582,-1.392554169,-13.08848236,5.334007874,14.20208497,0.0,3.0
181.5934362,-0.7336244202,-12.12927704,3.705993347,12.70401326,0.0,3.0
181.6034142,-0.393381958,-11.05256607,2.625390472,11.36690992,0.0,3.0
181.6133912,-0.7072792053,-10.18272491,1.837129669,10.37126685,0.0,3.0
181.6233692,-1.325942688,-9.385931854,1.190175018,9.553552081,0.0,3.0
181.6333472,-1.869163055,-8.859476624,-0.4251159668,9.06448124,0.0,3.0
181.6433242,-1.546134796,-8.567134552,-16.64688263,18.78576665,0.0,3.0
181.6533022,-2.243684235,-9.079668732,-25.0120871,26.70353917,0.0,3.0
181.6632802,-3.811673584,-9.314380646,-17.73691589,20.39325201,0.0,3.0
181.6732572,-4.51071991,-9.371412048,-7.973169708,13.10501404,0.0,3.0
181.6832352,-4.793631592,-9.122928772,-0.7059320068,10.32981477,0.0,3.0
181.6932132,-4.385729828,-8.277935944,3.377576294,9.958256435,0.0,3.0
181.7031902,-3.690725098,-6.862928467,4.169279938,8.837654332,0.0,3.0
181.7131682,-3.17908905,-6.338269501,4.2228685,8.253053121,0.0,3.0
181.7231462,-2.776276703,-6.243366852,3.95372818,7.894257945,0.0,3.0
181.7331232,-2.489473114,-6.2201651,3.61318634,7.61203296,0.0,3.0
181.7431012,-2.424208832,-6.387966156,3.22474411,7.55525477,0.0,3.0
181.7530792,-2.646945648,-6.68120636,2.680176544,7.669953455,0.0,3.0
181.7630562,-3.250789948,-7.115153961,2.270628204,8.145477495,0.0,3.0
181.7730342,-3.872447205,-7.820786591,1.93293045,8.938499336,0.0,3.0
181.7830122,-4.373455353,-8.649163971,1.400787048,9.792719412,0.0,3.0
181.7929892,-4.9448172,-9.205407257,0.7957452393,10.47969229,0.0,3.0
181.8029672,-5.636379089,-9.733059998,-0.1713935852,11.24858222,0.0,3.0
181.8129452,-6.031856689,-10.30487091,-2.952909393,12.30013551,0.0,3.0
181.8229222,-5.713468781,-10.7946524,-10.29993118,15.97675901,0.0,3.0
181.8329002,-5.043761444,-11.80056061,-18.01533691,22.11888614,0.0,3.0
181.8428782,-5.496719513,-13.65565292,-14.10127625,20.38471913,0.0,3.0
181.8528552,-6.390810242,-15.04401581,-4.516408081,16.957677,0.0,3.0
181.8628332,-6.868766327,-15.77584396,1.017583923,17.23637667,0.0,3.0
181.8728112,-6.614894257,-16.454832,3.042123871,17.99368889,0.0,3.0
181.8827882,-5.711822205,-17.27422806,2.408192139,18.35274522,0.0,3.0
181.8927662,-4.669539642,-17.47705627,-2.338437195,18.24062458,0.0,3.0
181.9027442,-3.869902496,-15.89514587,-10.59915894,19.49292122,0.0,3.0
181.9127212,-4.42764267,-13.44923218,-16.15410736,21.48117898,0.0,3.0
181.9226992,-5.785469055,-12.8265271,-11.46241379,18.14878452,0.0,3.0
181.9326772,-5.531297607,-14.18091064,-1.450334015,15.29042016,0.0,3.0
181.9426542,-4.115391998,-16.61245422,5.894741821,18.10132779,0.0,3.0
181.9526322,-3.732787628,-17.52525604,7.961943054,19.60767299,0.0,3.0
181.9626102,-4.416715393,-16.53746017,7.644004211,18.74635336,0.0,3.0
181.9725872,-5.846242676,-16.01175339,6.613996124,18.28386569,0.0,3.0
181.9825652,-7.254963226,-15.95083008,5.407505035,18.33860906,0.0,3.0
181.9925432,-8.956923981,-15.42527298,3.912114716,18.26116577,0.0,3.0
182.0025202,-11.22156464,-14.64569412,2.484832764,18.61704228,0.0,3.0
182.0124982,-12.76290939,-14.17028275,1.670376434,19.14363933,0.0,3.0
182.0224762,-13.06752594,-14.46756454,1.72935379,19.57195245,0.0,3.0
182.0324532,-13.35582642,-14.22641602,2.175575867,19.63420847,0.0,3.0
182.0424312,-14.32311493,-11.85340073,2.189496918,18.72027315,0.0,3.0
182.0524092,-16.07507172,-8.047115936,7.02983139,19.30239713,0.0,3.0
182.0623862,-15.83227661,-3.59327774,6.925348663,17.65029976,0.0,3.0
182.0723642,-12.70767426,-1.21098175,-0.6878196716,12.78376148,0.0,3.0
182.0823422,-8.393645325,-0.1730401611,-13.61104568,15.99199141,0.0,3.0
182.0923192,-4.652624817,-0.4309538269,-16.0593544,16.72529529,0.0,3.0
