Time (s),Acceleration x (m/s^2),Acceleration y (m/s^2),Acceleration z (m/s^2),Absolute acceleration (m/s^2),label,window
225.0045465,12.51083359,9.621691589,-5.503455505,16.71484157,1.0,0.0
225.0144875,8.02675827,7.125482483,-3.613635406,11.32518034,1.0,0.0
225.0244285,4.441114655,4.808899841,-2.1857547,6.901198495,1.0,0.0
225.0343695,1.708547058,2.738704834,-1.60765686,3.606133358,1.0,0.0
225.0443105,-0.4605921936,1.094972992,-1.831291809,2.182828603,1.0,0.0
225.0542505,-2.058668976,0.0004490661621,-2.595153351,3.312542689,1.0,0.0
225.0641915,-3.087778931,-0.8198451233,-3.532055054,4.76255579,1.0,0.0
225.0741325,-3.463796997,-1.37249588,-4.150718536,5.577642777,1.0,0.0
225.0840735,-3.201692047,-1.692829742,-4.327650604,5.643143118,1.0,0.0
225.0940135,-2.600542145,-1.805245972,-4.005670166,5.105597511,1.0,0.0
225.1039545,-2.189047852,-1.791025543,-3.3522789,4.386054812,1.0,0.0
225.1138955,-2.073637848,-1.895208893,-2.581681366,3.815346557,1.0,0.0
225.1238365,-2.264041901,-2.117346954,-1.872905273,3.621714789,1.0,0.0
225.1337775,-2.568658447,-2.382146301,-1.209484863,3.706140965,1.0,0.0
225.1437175,-3.113824768,-2.628983002,-0.6818321228,4.1318702,1.0,0.0
225.1536585,-3.839515686,-2.767744446,-0.4122427368,4.751024531,1.0,0.0
225.1635995,-4.335584106,-2.8877948,-0.2243833923,5.214115098,1.0,0.0
225.1735405,-4.369713135,-2.884801025,-0.08801696777,5.236813614,1.0,0.0
225.1834815,-4.215533752,-2.559976501,-0.01586700439,4.931982995,1.0,0.0
225.1934215,-4.121828613,-2.136507111,0.06242019653,4.64306257,1.0,0.0
225.2033625,-3.853287048,-1.897753601,-0.05179229736,4.295575893,1.0,0.0
225.2133035,-3.611090698,-1.755848694,-0.2718347168,4.024534107,1.0,0.0
225.2232445,-2.891537018,-1.553319855,-0.413739624,3.308318209,1.0,0.0
225.2331855,-1.98681839,-0.986149292,-0.5984555054,2.297408699,1.0,0.0
225.2431255,-1.433419189,-0.302820282,-0.8503816223,1.693971546,1.0,0.0
225.2530665,-0.7914042664,0.230969696,-1.378184052,1.605944891,1.0,0.0
225.2630075,0.289947052,0.5822891235,-2.029928741,2.131605173,1.0,0.0
225.2729485,1.33627121,1.327738953,-2.743045807,3.327583473,1.0,0.0
225.2828895,2.759810944,2.910996552,-3.780238953,5.511865737,1.0,0.0
225.2928295,4.498295746,5.040468292,-4.825365601,8.302116501,1.0,0.0
225.3027705,5.936804352,7.510332184,-5.519921265,11.05080387,1.0,0.0
225.3127115,8.319250031,10.07030869,-5.839506683,14.30807032,1.0,0.0
225.3226525,12.79179932,12.74075546,-5.706732788,18.93472415,1.0,0.0
225.3325935,18.16592377,15.07365417,-5.6760466,24.27824832,1.0,0.0
225.3425335,23.95124313,16.94655945,-6.203100586,29.98877093,1.0,0.0
225.3524745,29.07314209,18.44464417,-7.341333618,35.20437002,1.0,0.0
225.3624155,33.45857254,19.47091003,-8.415948944,39.6159136,1.0,0.0
225.3723565,36.17542282,19.81160156,-8.912017365,42.19697651,1.0,0.0
225.3822975,36.02962601,19.44800766,-8.953630829,41.91093482,1.0,0.0
225.3922375,32.55370422,18.06263855,-8.609047394,38.21149391,1.0,0.0
225.4021785,27.05249405,15.74186462,-7.950117645,32.29315882,1.0,0.0
225.4121195,21.08425507,13.06243652,-7.350764008,25.86903151,1.0,0.0
225.4220605,15.5763089,10.9923912,-6.380631409,20.10389317,1.0,0.0
225.4320005,11.15315689,9.440418549,-5.421575775,15.58550272,1.0,0.0
225.4419415,7.88051239,8.142767029,-4.639152832,12.24454448,1.0,0.0
225.4518825,5.536686401,6.915020142,-4.057312775,9.743417615,1.0,0.0
225.4618235,3.856430511,5.780080261,-3.641178131,7.844715565,1.0,0.0
225.4717645,2.795586548,4.990921326,-3.560196533,6.737922468,1.0,0.0
225.4817045,2.139500885,4.843927002,-3.914360046,6.585082187,1.0,0.0
225.4916455,1.672322388,4.934488678,-4.366869049,6.798189904,1.0,0.0
225.5015865,1.260977783,4.767136688,-4.539160767,6.702211399,1.0,0.0
225.5115275,0.7563771057,4.229754181,-4.303251343,6.081192225,1.0,0.0
225.5214685,0.2302212524,3.523822174,-3.652404785,5.080392234,1.0,0.0
225.5314085,-0.3965254211,3.061433716,-2.772085419,4.148983776,1.0,0.0
225.5413495,-0.9924362183,2.985242157,-1.689087524,3.57066059,1.0,0.0
225.5512905,-1.350491638,2.981649628,-0.6734495544,3.341795396,1.0,0.0
225.5612315,-1.548679504,2.799179077,0.02514770508,3.199131776,1.0,0.0
225.5711725,-1.602417755,2.563269653,0.4373904419,3.054407369,1.0,0.0
225.5811125,-1.500479736,2.553539886,0.4971162415,3.003186632,1.0,0.0
225.5910535,-1.414259033,2.65143631,0.5203179932,3.049749815,1.0,0.0
225.6009945,-1.237326965,2.401755524,0.5878276062,2.764950074,1.0,0.0
225.6109355,-1.422042847,1.985022125,0.5589376831,2.504981044,1.0,0.0
225.6208765,-1.962718506,1.561403046,0.44697052,2.547552953,1.0,0.0
225.6308165,-2.385439453,1.065334625,0.3899391174,2.641460157,1.0,0.0
225.6407575,-2.687810669,0.5631289673,0.3772155762,2.771954548,1.0,0.0
225.6506985,-2.918031921,0.2392025757,0.4198768616,2.957773613,1.0,0.0
225.6606395,-2.698737946,0.09610015869,0.2667453003,2.713590757,1.0,0.0
225.6705805,-2.091151428,0.2381547546,-0.177381134,2.11213069,1.0,0.0
225.6805205,-1.750609589,0.7216493225,-0.7939489746,2.053233219,1.0,0.0
225.6904615,-1.655856628,1.281335449,-1.71303772,2.705213473,1.0,0.0
225.7004025,-1.81482605,1.816772003,-2.693947906,3.721775037,1.0,0.0
225.7103435,-2.539768524,2.686613159,-3.688629456,5.222480415,1.0,0.0
225.7202845,-3.822002106,4.173471222,-4.326303406,7.123374432,1.0,0.0
225.7302245,-5.241051178,6.329288177,-4.392316132,9.317775876,1.0,0.0
225.7401655,-5.614374847,8.706794128,-4.210144958,11.18278988,1.0,0.0
225.7501065,-3.425326996,10.94823303,-4.480632477,12.31554867,1.0,0.0
225.7600475,1.836381226,14.44451248,-4.768633575,15.32175261,1.0,0.0
225.7699885,9.971813507,19.12153656,-4.456682281,22.02117713,1.0,0.0
225.7799285,21.25609772,22.80822006,-5.012925568,31.57793558,1.0,0.0
225.7898695,31.38957504,24.40300369,-7.606582031,40.48051508,1.0,0.0
225.7998105,37.32533157,24.12039139,-11.44909149,45.89177872,1.0,0.0
225.8097515,39.32202942,22.12728607,-14.6419519,47.43654227,1.0,0.0
225.8196925,38.5101178,18.80359772,-16.70121964,45.99494752,1.0,0.0
225.8296325,36.14503601,15.53709045,-17.47346375,43.04865553,1.0,0.0
225.8395732,32.40835648,12.85721329,-16.78729065,38.69654546,1.0,0.0
225.8495142,27.61951492,11.04104004,-14.40768906,33.05032033,1.0,0.0
225.8594552,22.15527786,9.313183136,-10.55275543,26.2479021,1.0,0.0
225.8693962,16.90404785,6.788383484,-6.237379303,19.25445104,1.0,0.0
225.8793362,12.11490692,3.970942383,-2.460134125,12.98428331,1.0,0.0
225.8892772,7.938292236,1.925595703,0.4593946838,8.181408553,1.0,0.0
225.8992182,4.630770264,0.6126759338,2.339634705,5.224298574,1.0,0.0
225.9091592,2.417622528,-0.4155358887,3.054697723,3.917747688,1.0,0.0
225.9191002,1.027164001,-1.203497314,2.740201721,3.16420245,1.0,0.0
225.9290402,0.0889151001,-1.631906433,1.864672394,2.479521655,1.0,0.0
225.9389812,-0.7658074951,-1.717528381,0.8689430237,2.071575931,1.0,0.0
225.9489222,-1.379980316,-1.530118103,-0.006885681152,2.060498603,1.0,0.0
225.9588632,-1.60062149,-1.204694824,-0.6105802917,2.094298706,1.0,0.0
225.9688042,-1.506317596,-0.8198451233,-0.9258247375,1.948920258,1.0,0.0
225.9787442,-1.224004669,-0.4770579529,-1.046623535,1.6796406,1.0,0.0
225.9886852,-0.8156538391,-0.1582209778,-0.9993218994,1.299603525,1.0,0.0
225.9986262,-0.5785469055,0.09385482788,-0.724044342,0.9315392959,1.0,0.0
226.0085672,-0.7717950439,0.08008346558,-0.1871109009,0.7981800803,1.0,0.0
226.0185082,-1.319356384,-0.2736309814,0.4114942932,1.408865762,1.0,0.0
226.0284482,-2.206112366,-0.697250061,0.4309538269,2.353467786,1.0,0.0
226.0383892,-3.032543793,-1.039887543,0.1752854919,3.21067173,1.0,0.0
226.0483302,-3.808979187,-1.188229065,-0.04026626587,3.990217053,1.0,0.0
226.0582712,-4.478387146,-1.274898834,-0.4728666687,4.680269368,1.0,0.0
226.0682122,-5.198240204,-1.465302887,-1.229842529,5.539072703,1.0,0.0
226.0781522,-5.655539246,-1.7995578,-1.968556366,6.252899056,1.0,0.0
226.0880932,-5.498815155,-2.151925049,-2.36238739,6.359923247,1.0,0.0
226.0980342,-5.868097229,-2.248324585,-2.198927307,6.657688024,1.0,0.0
226.1079752,-6.348298645,-2.058668976,-1.998643799,6.966605391,1.0,0.0
226.1179162,-7.295678558,-1.710043945,-2.106868744,7.783962476,1.0,0.0
226.1278562,-8.388106842,-0.9211843872,-2.559377747,8.81812517,1.0,0.0
226.1377972,-8.834927673,0.6912625122,-3.047362976,9.371243886,1.0,0.0
226.1477382,-6.367309113,2.848875732,-2.80232254,7.51742841,1.0,0.0
226.1576792,-0.2103126526,5.911656647,-1.902992706,6.213959845,1.0,0.0
226.1676202,10.25906616,10.20697449,0.04580474854,14.47179549,1.0,0.0
226.1775602,25.32688248,15.84754486,2.395917664,29.9722551,1.0,0.0
226.1875012,40.24875229,20.34344559,3.303330688,45.21868898,1.0,0.0
226.1974422,49.60564453,22.38684631,0.1255888367,54.42340149,1.0,0.0
226.2073832,50.99535461,22.76286438,-6.425538025,56.21353686,1.0,0.0
226.2173242,45.24581085,21.56370804,-12.69944138,51.70544183,1.0,0.0
226.2272642,37.24884064,19.01151535,-15.71177719,44.67408407,1.0,0.0
226.2372052,29.86304947,15.73857147,-15.15493515,37.00238391,1.0,0.0
226.2471462,23.47298767,12.79494278,-12.07119781,29.33266997,1.0,0.0
226.2570872,17.82867508,10.53838531,-7.822582855,22.13847381,1.0,0.0
226.2670282,12.97531769,8.668623505,-4.08829834,16.13127664,1.0,0.0
226.2769692,9.097481689,7.195536804,-1.454824677,11.69001445,1.0,0.0
226.2869092,6.158643036,5.92887085,0.2969824219,8.553864165,1.0,0.0
226.2968502,4.018543396,4.701573029,1.629511414,6.395997765,1.0,0.0
226.3067912,2.3834935,3.509601746,2.673290863,5.014462056,1.0,0.0
226.3167322,1.359323273,2.748733978,2.811004486,4.159933228,1.0,0.0
226.3266722,0.6994953918,2.263742523,2.22781723,3.252229024,1.0,0.0
226.3366132,-0.7631130981,2.177671509,1.093775482,2.553613049,1.0,0.0
226.3465542,-2.536325684,2.0079245,-0.03113525391,3.235070041,1.0,0.0
226.3564952,-3.693569183,1.194216614,-0.9804611206,4.003737085,1.0,0.0
226.3664362,-4.574786682,-0.720302124,0.1272354126,4.632892961,1.0,0.0
226.3763762,-6.0025177,-3.889811096,3.403472443,7.921140939,1.0,0.0
226.3863172,-6.594386902,-3.67291214,4.195774841,8.636014632,1.0,0.0
226.3962582,-6.40039032,-2.074685669,4.201612701,7.93239347,1.0,0.0
226.4061992,-5.464686127,-0.909508667,2.770289154,6.193908498,1.0,0.0
226.4161402,-4.585713959,-1.165925446,1.066681824,4.85035718,1.0,0.0
226.4260812,-5.266947327,-2.980302429,0.382155304,6.063743018,1.0,0.0
226.4360212,-5.738017731,-2.761906586,-0.6854246521,6.404902998,1.0,0.0
226.4459622,-4.107757874,-2.315085754,-0.9328601074,4.80661261,1.0,0.0
226.4559032,-2.158361664,-1.901944885,-0.6409671021,2.947330698,1.0,0.0
226.4658442,-0.9036708069,-1.31980545,-0.2600093079,1.620528369,1.0,0.0
226.4757852,6.095474396,0.336051178,-2.572101288,6.624457981,1.0,0.0
226.4857252,52.56409241,12.96543823,-26.61480423,60.32772334,1.0,0.0
226.4956662,5.023852844,10.9738298,-4.212240601,12.78307509,1.0,0.0
226.5056072,-12.56307495,3.286116486,5.484744415,14.09651854,1.0,0.0
226.5155482,-4.607568512,-0.07873626709,2.760858765,5.371985491,1.0,0.0
226.5254892,6.388115845,-0.7185058594,7.354057159,9.767621585,1.0,0.0
226.5354292,15.29609161,1.778451691,10.37103333,18.56587303,1.0,0.0
226.5453702,11.74038574,5.28296402,11.85863983,17.50353407,1.0,0.0
226.5553112,9.398056641,8.421188049,10.63957489,16.50576962,1.0,0.0
226.5652522,9.360035706,9.333241425,10.54227722,16.90737333,1.0,0.0
226.5751932,9.690398712,7.080426178,12.23316101,17.13728363,1.0,0.0
226.5851332,14.72368195,6.746021576,12.84089722,20.66843629,1.0,0.0
226.5950742,18.35063965,10.59945831,3.560346222,21.48884728,1.0,0.0
226.6050152,19.59799576,10.14829651,4.281247101,22.4810684,1.0,0.0
226.6149562,23.66548737,5.608986053,9.22381897,26.01143697,1.0,0.0
226.6248972,21.29187332,5.348377991,20.51633606,30.04777965,1.0,0.0
226.6348372,18.03045547,8.424481201,32.13846771,37.80145917,1.0,0.0
226.6447782,21.28843048,8.82250351,13.98332153,26.95490904,1.0,0.0
226.6547192,16.24167526,8.938661957,8.95587616,20.58881761,1.0,0.0
226.6646602,16.35678589,7.929011536,9.347910919,20.44008579,1.0,0.0
226.6746012,15.22259445,7.468419342,12.33000961,20.96506156,1.0,0.0
226.6845412,13.97868118,4.674030304,11.65117126,18.788291,1.0,0.0
226.6944822,12.12119385,2.092348938,8.670419769,15.04916753,1.0,0.0
226.7044232,9.17576889,2.867137756,7.520960083,12.20573858,1.0,0.0
226.7143642,8.351133728,3.677253113,6.506369934,11.2069833,1.0,0.0
226.7243052,8.806636505,2.59410553,5.230423279,10.56615151,1.0,0.0
226.7342452,8.059240723,1.53984787,4.876110077,9.544576574,1.0,0.0
226.7441862,5.684578857,1.712139587,5.100194092,7.82673869,1.0,0.0
226.7541272,3.356619873,2.121987305,4.628973999,6.098944776,1.0,0.0
226.7640682,3.004552002,1.734742584,2.608325958,4.340510209,1.0,0.0
226.7740092,4.097878418,1.766476593,0.4176315308,4.481903968,1.0,0.0
226.7839492,1.076411591,1.971250763,-0.494122467,2.299706176,1.0,0.0
226.7938902,-1.393901367,1.473685455,-0.8984317017,2.218533156,1.0,0.0
226.8038312,-1.243314514,1.121318207,-0.04894821167,1.674986994,1.0,0.0
226.8137722,-2.091899872,0.8424481201,2.777025146,3.577377891,1.0,0.0
226.8237132,-1.246907043,0.1901046753,8.21401886,8.310296192,1.0,0.0
226.8336542,-3.1054422,-0.5369334412,6.183491364,6.940290644,1.0,0.0
226.8435944,-2.193239136,-0.6111790466,6.315217438,6.713107255,1.0,0.0
226.8535354,-1.748214569,-0.8093669128,5.161566467,5.509364516,1.0,0.0
226.8634764,-1.164428558,-1.221310272,3.28207489,3.690461791,1.0,0.0
226.8734174,-0.5888754272,-1.666933594,1.879790955,2.580514659,1.0,0.0
226.8833584,-0.5644761658,-1.83817749,0.8372090149,2.097247902,1.0,0.0
226.8932984,-0.7259902954,-1.656305695,0.2980302429,1.83282091,1.0,0.0
226.9032394,-0.9063652039,-1.338965607,0.06406677246,1.618156769,1.0,0.0
226.9131804,-1.03554657,-1.038091278,-0.2157014465,1.482065219,1.0,0.0
226.9231214,-1.141226807,-0.7364685059,-0.4156855774,1.420415074,1.0,0.0
226.9330624,-1.052910461,-0.4337979126,-0.4733157349,1.233218899,1.0,0.0
226.9430024,-0.7201524353,-0.1745370483,-0.33230896,0.8121034147,1.0,0.0
226.9529434,-0.07274871826,0.1667532349,-0.1764830017,0.2534665012,1.0,0.0
226.9628844,0.646355896,0.5480104065,0.3150947571,0.9040885221,1.0,0.0
226.9728254,2.157912598,0.6623725891,1.531764679,2.727934614,1.0,0.0
226.9827664,5.230572968,0.8581654358,4.108356628,6.706260931,1.0,0.0
226.9927064,9.704319763,1.373094635,7.667205963,12.44368347,1.0,0.0
227.0026474,14.63162338,1.290915527,11.06708588,18.39106456,1.0,0.0
227.0125884,19.75501923,0.02769241333,16.08824432,25.4773067,1.0,0.0
227.0225294,25.66323303,-2.066303101,22.38519974,34.11697972,1.0,0.0
227.0324704,31.37565399,-4.251309357,27.04665619,41.64164869,1.0,0.0
227.0424104,34.89274017,-5.833968201,28.12516342,45.19472668,1.0,0.0
227.0523514,33.98278244,-6.211782532,25.57371918,42.98175028,1.0,0.0
227.0622924,30.43575851,-5.262456665,21.26148651,37.49772867,1.0,0.0
227.0722334,25.91650635,-4.089645538,17.77628403,31.69206171,1.0,0.0
227.0821744,21.95005463,-3.101250916,15.65744019,27.13997215,1.0,0.0
227.0921144,18.71138947,-2.205363922,14.13196243,23.551902,1.0,0.0
227.1020554,15.68034256,-1.317709808,12.73147476,20.24104621,1.0,0.0
227.1119964,12.43778549,-0.4543052673,11.26602219,16.7877383,1.0,0.0
227.1219374,9.23429718,0.3218307495,9.70357132,13.39907145,1.0,0.0
227.1318784,6.789880371,1.036893768,8.090375977,10.61281337,1.0,0.0
227.1418184,5.283712463,1.864373016,6.456972656,8.549035035,1.0,0.0
227.1517594,4.381239166,2.537822571,4.718038788,6.920671213,1.0,0.0
227.1617004,3.97707962,2.847528534,2.726130981,5.59976528,1.0,0.0
227.1716414,3.647465057,3.073259125,1.058299255,4.885582903,1.0,0.0
227.1815824,3.121009827,3.182531891,0.006735992432,4.45749447,1.0,0.0
227.1915224,2.947370911,3.120111694,-0.6617738342,4.342814396,1.0,0.0
227.2014634,3.309467926,2.846031647,-0.867146759,4.450215454,1.0,0.0
227.2114044,4.090094604,2.343227234,-0.4918771362,4.739359752,1.0,0.0
227.2213454,4.650080109,1.766925659,0.2933898926,4.983106354,1.0,0.0
227.2312864,5.073399811,1.165925446,0.7553292847,5.260160655,1.0,0.0
227.2412274,4.986730042,0.899329834,0.3890409851,5.082088502,1.0,0.0
227.2511674,4.115841064,0.979712677,-0.6004014587,4.273226709,1.0,0.0
227.2611084,2.787802734,1.106349335,-2.073937225,3.646514576,1.0,0.0
227.2710494,1.632505188,1.034049683,-3.551065521,4.042820584,1.0,0.0
227.2809904,0.7628137207,1.021625519,-4.564907227,4.739618282,1.0,0.0
227.2909314,0.2854563904,1.070873108,-4.960534515,5.082829649,1.0,0.0
227.3008714,0.4049079895,1.089135132,-4.836741943,4.974358093,1.0,0.0
227.3108124,0.9482780457,0.9717791748,-4.385879517,4.591244401,1.0,0.0
227.3207534,1.780098267,0.7746391296,-3.576063538,4.069035026,1.0,0.0
227.3306944,2.732268219,0.3514691162,-2.449955292,3.686611058,1.0,0.0
227.3406354,3.537294159,-0.02769241333,-1.265917511,3.757095152,1.0,0.0
227.3505754,3.461701355,0.2089654541,0.04715194702,3.468323246,1.0,0.0
227.3605164,2.698139191,0.7929011536,1.371897125,3.129017266,1.0,0.0
227.3704574,1.729952545,0.9334588623,2.417921906,3.116155901,1.0,0.0
227.3803984,0.6834786987,0.6782395935,3.161425781,3.304809382,1.0,0.0
227.3903394,0.0592767334,0.9912387085,4.107608185,4.225933377,1.0,0.0
227.4002794,0.2145039368,1.74926239,5.215304718,5.505028079,1.0,0.0
227.4102204,1.14437027,2.191442871,6.473588104,6.92959942,1.0,0.0
227.4201614,2.446512451,1.929337921,8.536298676,9.087142734,1.0,0.0
227.4301024,3.473377075,1.855990448,12.50260071,13.10816819,1.0,0.0
227.4400434,4.23574173,1.958976288,18.76647491,19.33803705,1.0,0.0
227.4499834,4.438719635,0.6505471802,26.29506912,26.67500897,1.0,0.0
227.4599244,4.096980286,-1.583556976,33.99415878,34.27675206,1.0,0.0
227.4698654,4.123774567,-3.205583954,39.05303879,39.40077567,1.0,0.0
227.4798064,4.918771362,-3.051853638,40.17226135,40.58717414,1.0,0.0
227.4897474,5.445226593,-2.796784058,38.50128616,38.98488848,1.0,0.0
227.4996884,5.690566406,-3.30437851,35.46380264,36.06913863,1.0,0.0
227.5096284,5.787115631,-3.844455414,31.69104813,32.44369085,1.0,0.0
227.5195694,5.28416153,-3.974983978,27.35336838,28.14124415,1.0,0.0
227.5295104,4.211043091,-3.892505493,22.74699738,23.45869503,1.0,0.0
227.5394514,3.028502197,-3.789220276,18.19421494,18.82974968,1.0,0.0
227.5493924,2.061063995,-3.69282074,13.94155838,14.56886955,1.0,0.0
227.5593324,1.373094635,-3.144361267,10.57685532,11.11945435,1.0,0.0
227.5692734,0.5601351929,-1.819915466,8.753047943,8.957772716,1.0,0.0
227.5792144,-0.1718426514,-0.2667453003,7.877368927,7.883756983,1.0,0.0
227.5891554,-0.7467970276,0.5219645691,7.208260345,7.265615598,1.0,0.0
227.5990964,-1.249302063,0.6619235229,6.641838226,6.790648969,1.0,0.0
227.6090364,-1.135538635,0.8029302979,5.722450104,5.889022011,1.0,0.0
227.6189774,-0.6381230164,0.910556488,4.672683105,4.803153288,1.0,0.0
227.6289184,0.1001417542,0.8364605713,3.551514587,3.650061715,1.0,0.0
227.6388594,0.9701325989,0.8550219727,2.580334167,2.886233575,1.0,0.0
227.6488004,1.764081573,0.8562194824,1.964215393,2.775470719,1.0,0.0
227.6587404,2.326761475,0.8161029053,1.401086426,2.835998252,1.0,0.0
227.6686814,2.572250977,0.785716095,0.742306366,2.79013326,1.0,0.0
227.6786224,2.3834935,0.8086184692,0.05254074097,2.51747207,1.0,0.0
227.6885634,1.871558075,0.9801617432,-0.5014572144,2.171383432,1.0,0.0
227.6985044,1.486259308,1.082698517,-0.9569599915,2.072914671,1.0,0.0
227.7084444,0.7550299072,1.122216339,-1.25199646,1.843077537,1.0,0.0
227.7183854,0.126486969,1.215173035,-1.473535767,1.91414527,1.0,0.0
227.7283264,-0.5613327026,1.335822144,-1.820514221,2.326754657,1.0,0.0
227.7382674,-1.11039093,1.345102844,-2.163151703,2.77875781,1.0,0.0
227.7482084,-1.352287903,1.420545959,-2.260000305,2.992362741,1.0,0.0
227.7581494,-1.38656662,1.557062073,-1.990111542,2.882282644,1.0,0.0
227.7680894,-1.115480347,1.711241455,-1.510957947,2.540794686,1.0,0.0
227.7780304,-0.8580157471,1.93068512,-0.7771838379,2.251166536,1.0,0.0
227.7879714,-0.4965174866,2.170935516,0.5815406799,2.301669002,1.0,0.0
227.7979124,0.1011895752,2.248474274,2.15177536,3.113842175,1.0,0.0
227.8078534,1.205293579,1.951042786,3.761378174,4.405367899,1.0,0.0
227.8177934,2.566862183,1.535806274,5.730233917,6.463981987,1.0,0.0
227.8277344,4.484674072,1.912273407,8.101452942,9.455296446,1.0,0.0
227.8376751,6.377637634,3.528163147,10.4894371,12.77303753,1.0,0.0
227.8476161,6.540498962,5.364244995,11.84950882,14.55898727,1.0,0.0
227.8575571,5.933960266,5.776637421,13.8165683,16.10835137,1.0,0.0
227.8674971,5.921685791,3.985911255,18.59178818,19.91503047,1.0,0.0
227.8774381,6.989565125,1.329086151,25.73433517,26.69974714,1.0,0.0
227.8873791,9.505233765,-0.8084687805,31.82127731,33.22042716,1.0,0.0
227.8973201,12.86739212,-4.106410675,34.52794876,37.07575534,1.0,0.0
227.9072611,16.58446243,-7.121440887,34.36029739,38.81223198,1.0,0.0
227.9172021,18.99998932,-8.027057648,31.42280594,37.58757749,1.0,0.0
227.9271421,18.41844864,-7.984246674,26.44565598,33.20180967,1.0,0.0
227.9370831,15.53439606,-7.712262268,21.01988892,27.25127851,1.0,0.0
227.9470241,12.68896317,-7.195836182,16.51560562,22.03531424,1.0,0.0
227.9569651,10.90392517,-6.281238098,13.25987595,18.28042249,1.0,0.0
227.9669061,10.03333557,-5.305567017,11.20225479,15.94701779,1.0,0.0
227.9768461,9.818532257,-4.556075592,10.09575577,14.80154333,1.0,0.0
227.9867871,9.556576996,-3.62022171,9.359287262,13.85750436,1.0,0.0
227.9967281,8.931925964,-2.351609802,8.408913574,12.49076449,1.0,0.0
228.0066691,7.576943665,-1.634900208,7.410639496,10.72383102,1.0,0.0
228.0166101,6.390510864,-1.169817352,6.725514221,9.350916708,1.0,0.0
228.0265501,6.259832611,-1.212778015,5.352868652,8.32523499,1.0,0.0
228.0364911,5.506598969,-1.428329773,4.347858582,7.160072094,1.0,0.0
228.0464321,4.147575073,-1.235680389,3.658092957,5.666650606,1.0,0.0
228.0563731,3.291205902,-0.5962101746,2.434237976,4.136788294,1.0,0.0
228.0663141,2.540816345,0.3047662354,1.382225647,2.908466589,1.0,0.0
228.0762551,2.648292847,0.9192384338,0.7577243042,2.90389401,1.0,0.0
228.0861951,2.509980469,0.9783654785,0.4152365112,2.725733355,1.0,0.0
228.0961361,1.922152863,0.5444178772,0.7282356262,2.126355939,1.0,0.0
228.1060771,1.549128571,0.3002755737,1.214125214,1.990995927,1.0,0.0
228.1160181,1.471440125,0.3511697388,1.003363495,1.815267068,1.0,0.0
228.1259591,1.458566895,0.662971344,0.8610095215,1.81886937,1.0,0.0
228.1358991,1.510359192,1.124012604,0.629740448,1.98523607,1.0,0.0
228.1458401,1.252894592,1.440604248,1.122964783,2.214979766,1.0,0.0
228.1557811,1.710942078,1.85688858,2.74035141,3.72624259,1.0,0.0
228.1657221,1.669777679,2.10731781,3.866160278,4.709155036,1.0,0.0
228.1756631,0.569715271,1.65331192,3.76182724,4.148416563,1.0,0.0
228.1856031,1.639839935,1.385967865,4.215384064,4.730691782,1.0,0.0
228.1955441,3.044069824,1.003064117,4.884792023,5.842404627,1.0,0.0
228.2054851,1.73638916,0.196690979,4.802612915,5.110658027,1.0,0.0
228.2154261,1.415007477,-0.6185137939,5.628744965,5.836743557,1.0,0.0
228.2253671,1.868713989,-1.080303497,7.210655365,7.526798683,1.0,0.0
228.2353071,2.330653381,-0.9753717041,8.979526978,9.328193817,1.0,0.0
228.2452481,3.701502686,-0.8424481201,10.43405228,11.10316567,1.0,0.0
228.2551891,4.736151123,-0.8641529846,10.83012863,11.85198608,1.0,0.0
228.2651301,5.14959137,-0.8701405334,10.59137512,11.8090077,1.0,0.0
228.2750711,5.109325104,-0.9825567627,10.19305344,11.44416704,1.0,0.0
228.2850121,4.727319489,-0.9015751648,9.986483002,11.08558659,1.0,0.0
228.2949521,4.492308197,-0.1053808594,10.78477295,11.6834612,1.0,0.0
228.3048931,4.934638367,1.270557861,11.73080566,12.78971363,1.0,0.0
228.3148341,6.189179535,2.821333008,12.46996857,14.2044352,1.0,0.0
228.3247751,7.74713974,4.089944916,13.27783859,15.90744547,1.0,0.0
228.3347161,8.416547699,3.823498993,12.73880951,15.73958981,1.0,0.0
228.3446561,7.890391846,2.215393066,9.799970856,12.77519779,1.0,0.0
228.3545971,8.190517731,2.033670959,5.968837738,10.33670268,1.0,0.0
228.3645381,9.323361969,2.946772156,3.038980408,10.2393333,1.0,0.0
228.3744791,9.683513031,3.984713745,2.351160736,10.73202334,1.0,0.0
228.3844201,8.848848724,5.310955811,3.352428589,10.85113601,1.0,0.0
228.3943601,7.621101837,5.548062744,4.80665451,10.58140449,1.0,0.0
228.4043011,6.353238373,4.064497833,6.258036346,9.800346901,1.0,0.0
228.4142421,6.542744293,1.910177765,6.030509491,9.100732207,1.0,0.0
228.4241831,7.06964859,0.2725831604,6.005810852,9.280301545,1.0,0.0
228.4341241,6.279741211,-0.7780819702,5.950126648,8.68588328,1.0,0.0
228.4440651,5.410349121,-1.319955139,5.81061676,8.048442478,1.0,0.0
228.4540051,5.435496826,-1.268312531,5.724545746,7.995227728,1.0,0.0
228.4639461,5.474116516,-0.5932164001,6.011499023,8.152053596,1.0,0.0
228.4738871,4.916076965,0.6186634827,6.266269226,7.988534737,1.0,0.0
228.4838281,4.130660248,1.209784241,5.516179047,6.996725182,1.0,0.0
228.4937691,4.335284729,0.9916877747,3.920048218,5.928314799,1.0,0.0
228.5037091,4.803810425,0.5951623535,2.382745056,5.395209618,1.0,0.0
228.5136501,4.514761505,0.3688330078,1.525178375,4.779673452,1.0,0.0
228.5235911,3.241658936,0.1471440125,1.145867157,3.441368268,1.0,0.0
228.5335321,1.364562378,-0.132923584,1.312470703,1.897966941,1.0,0.0
228.5434731,1.017583923,0.2854563904,1.850901031,2.131383828,1.0,0.0
228.5534141,2.542462921,1.204994202,2.266586609,3.612968805,1.0,0.0
228.5633541,4.528682556,1.91541687,2.891537018,5.7042768,1.0,0.0
228.5732951,5.731730804,1.954485626,3.477718048,6.983356994,1.0,0.0
228.5832361,5.170547791,0.9976753235,3.989204407,6.60633577,1.0,0.0
228.5931771,3.717968445,-0.1454974365,4.888085175,6.143112854,1.0,0.0
228.6031181,2.554737396,-0.5736071777,6.107599182,6.645184431,1.0,0.0
228.6130581,2.095193024,0.05748046875,7.22173233,7.519744388,1.0,0.0
228.6229991,2.554438019,1.293310547,8.311615906,8.790947886,1.0,0.0
228.6329401,3.53594696,2.319875793,9.53966217,10.43503229,1.0,0.0
228.6428811,4.524940338,2.497256927,10.9672435,12.12401778,1.0,0.0
228.6528221,5.576204224,2.228715363,12.45320343,13.82546568,1.0,0.0
228.6627631,6.357579346,2.119592285,13.46659607,15.04196451,1.0,0.0
228.6727031,6.75021286,2.638862457,13.86746246,15.64721969,1.0,0.0
228.6826441,6.532266083,3.841761017,14.03271881,15.94825461,1.0,0.0
228.6925851,5.792055359,5.231321411,14.06385406,16.08435949,1.0,0.0
228.7025261,4.839586029,5.867648163,14.19887329,16.10772767,1.0,0.0
228.7124671,4.174069977,5.267546082,14.93728775,16.37963575,1.0,0.0
228.7224071,4.082909546,3.888763275,16.45827484,17.39734005,1.0,0.0
228.7323481,4.087849274,2.557431793,18.47263596,19.09160151,1.0,0.0
228.7422891,3.563789062,1.622476044,19.50548813,19.89464974,1.0,0.0
228.7522301,2.464325409,1.104104004,19.63871109,19.82349411,1.0,0.0
228.7621711,0.883762207,0.8391549683,19.00792282,19.04695111,1.0,0.0
228.7721121,-0.5903723145,0.5846841431,17.60623764,17.62583328,1.0,0.0
228.7820521,-1.576820984,0.5210664368,15.95097977,16.03719521,1.0,0.0
228.7919931,-2.3237677,0.8777746582,15.35955963,15.55912776,1.0,0.0
228.8019341,-2.951262817,1.390757904,14.54959396,14.91089683,1.0,0.0
228.8118751,-3.121009827,1.911524963,13.31391357,13.80778493,1.0,0.0
228.8218161,-3.013832703,2.343077545,11.56270523,12.17659034,1.0,0.0
228.8317561,-2.808609467,2.597847748,8.882678375,9.671560121,1.0,0.0
228.8416972,-2.711461487,2.848426666,6.545738068,7.636245459,1.0,0.0
228.8516382,-4.291425934,3.27863205,6.582711182,8.514566998,1.0,0.0
228.8615792,-7.230414276,4.483626251,6.459667053,10.6821858,1.0,0.0
228.8715202,-6.36296814,6.209088135,7.267686768,11.48300527,1.0,0.0
228.8814612,-4.638853455,7.469766541,8.198600922,12.02220573,1.0,0.0
228.8914012,-2.345622253,6.463259583,8.127648468,10.64586013,1.0,0.0
228.9013422,-0.646355896,5.007087708,7.82318161,9.310793401,1.0,0.0
228.9112832,1.575773163,3.906276855,7.313192139,8.439480979,1.0,0.0
228.9212242,2.734363861,2.910846863,7.110513611,8.155315996,1.0,0.0
228.9311652,3.360212402,2.427651672,6.381379852,7.60963395,1.0,0.0
228.9411052,3.637136536,1.963766327,5.167404327,6.617190329,1.0,0.0
228.9510462,4.800367584,1.338815918,3.975732422,6.37513963,1.0,0.0
228.9609872,6.579717407,0.7771838379,2.661465454,7.140034611,1.0,0.0
228.9709282,5.270689545,-0.3350033569,2.714155884,5.937932105,1.0,0.0
228.9808692,3.748804321,-1.578916626,2.517315216,4.783658375,1.0,0.0
228.9908102,2.244732056,-2.184856567,2.726430359,4.152811424,1.0,0.0
229.0007502,2.044897614,-2.216440887,1.829944611,3.52745145,1.0,0.0
229.0106912,2.089654541,-1.689386902,0.4170327759,2.71930148,1.0,0.0
229.0206322,1.568588104,-1.030008087,-0.4670288086,1.933778997,1.0,0.0
229.0305732,0.8491841125,-0.2933898926,-0.5602848816,1.058825025,1.0,0.0
229.0405142,-1.012644196,0.9626481628,-0.1276844788,1.403012145,1.0,0.0
229.0504542,-12.77578262,5.164859619,-0.506995697,13.78961352,1.0,0.0
229.0603952,-20.03209305,10.38151154,-1.009949799,22.58496252,1.0,0.0
229.0703362,-11.89995392,10.38091278,3.482807465,16.17102969,1.0,0.0
229.0802772,-6.116430817,7.140601044,8.57791214,12.72711617,1.0,0.0
229.0902182,-6.656058655,3.964505768,10.27328659,12.86704473,1.0,0.0
229.1001592,-7.286547546,1.988464966,10.99718124,13.34113051,1.0,0.0
229.1100992,-7.013215942,1.080752563,12.56382339,14.42923706,1.0,0.0
229.1200402,-6.716981964,1.258882141,14.11399979,15.68144193,1.0,0.0
229.1299812,-6.304140472,2.231260071,15.67914505,17.04571202,1.0,0.0
229.1399222,-3.707639923,3.040926361,16.0885437,16.78794405,1.0,0.0
229.1498632,-1.600022736,2.243534546,19.31149155,19.50710706,1.0,0.0
229.1598032,-0.2941383362,0.6625222778,24.60897537,24.6196491,1.0,0.0
229.1697442,1.539099426,0.08053253174,26.78559906,26.82990178,1.0,0.0
229.1796852,2.268981628,0.06975494385,26.04478958,26.1435309,1.0,0.0
229.1896262,0.8268804932,-0.00853225708,24.19733139,24.21145701,1.0,0.0
229.1995672,0.02125579834,0.3251239014,18.15634369,18.15926688,1.0,0.0
229.2095082,-2.535726929,-0.5897735596,16.38896896,16.59445834,1.0,0.0
229.2194482,-4.82895813,-1.186582489,14.30904419,15.14845075,1.0,0.0
229.2293892,-7.499704285,-0.9175918579,12.85781204,14.91344594,1.0,0.0
229.2393302,-9.66839447,-0.4948709106,12.12478638,15.51557906,1.0,0.0
229.2492712,-10.56547897,-0.445922699,11.64174088,15.72762931,1.0,0.0
229.2592122,-10.38615189,-0.4649331665,10.83896027,15.01903371,1.0,0.0
229.2691522,-9.564660187,-0.3329077148,9.297016754,13.34271609,1.0,0.0
229.2790932,-8.317154388,0.2526745605,7.867339783,11.4513727,1.0,0.0
229.2890342,-7.048392792,1.548529816,7.316335602,10.27650486,1.0,0.0
229.2989752,-5.830824738,2.97087204,7.394622803,9.874464248,1.0,0.0
229.3089162,-4.382436676,4.040996704,7.958799591,9.943736547,1.0,0.0
229.3188572,-3.591481476,4.909790039,7.766599274,9.865335357,1.0,0.0
229.3287972,-3.444936218,5.409750366,7.015610962,9.505355424,1.0,0.0
229.3387382,-3.057691498,5.273383942,5.793851624,8.409921054,1.0,0.0
229.3486792,-2.963986359,4.852159882,4.340673523,7.153329105,1.0,0.0
229.3586202,-3.399730225,4.671485596,3.074306946,6.544639522,1.0,0.0
229.3685612,-4.244124298,4.779710541,2.035167847,6.708213777,1.0,0.0
229.3785012,-4.931494904,4.994513855,1.240470428,7.127662837,1.0,0.0
229.3884422,-5.737868042,4.766537933,-2.112257538,7.752718584,1.0,0.0
229.3983832,-6.496191101,4.588108978,-6.317462769,10.15684885,1.0,0.0
229.4083242,-5.594316559,3.531156921,-1.226100311,6.728206963,1.0,0.0
229.4182652,-5.102888489,3.442990265,1.682501221,6.381572161,1.0,0.0
229.4282062,-5.06411911,3.924838257,2.964285736,7.059507605,1.0,0.0
229.4381462,-5.190905457,4.448000336,3.379372559,7.625638684,1.0,0.0
229.4480872,-5.292544098,5.380860443,1.674268341,7.730967379,1.0,0.0
229.4580282,-5.024002533,7.229067078,0.6997947693,8.831179139,1.0,0.0
229.4679692,-3.221001892,6.288423157,2.683170319,7.557679667,1.0,0.0
229.4779102,-1.621128845,4.362528076,5.586682434,7.271226208,1.0,0.0
229.4878502,-2.012864227,3.124901733,8.527766418,9.302657326,1.0,0.0
229.4977912,-2.225272522,1.696122894,10.78597046,11.1429722,1.0,0.0
229.506768,-1.369651794,4.249662781,8.732241211,9.807528555,1.0,0.0
229.516709,-2.019001465,4.561464386,9.301657104,10.5548164,1.0,0.0
229.52665,-3.230132904,5.259911957,10.26729904,11.97989407,1.0,0.0
229.536591,-3.992048492,6.383475494,11.29087051,13.57088676,1.0,0.0
229.546532,-3.665577393,7.49326767,11.49025589,14.19899639,1.0,0.0
229.556473,-2.532733154,8.267158356,11.11259125,14.08013951,1.0,0.0
229.566414,-1.50122818,8.547225952,11.16812576,14.14340096,1.0,0.0
229.576355,-0.2070195007,8.415050812,11.98063614,14.64211663,1.0,0.0
229.586295,1.489103394,8.094267883,13.18592972,15.54359495,1.0,0.0
229.596236,2.492466888,7.463329926,14.39541458,16.40553704,1.0,0.0
229.606177,2.423011322,6.691235504,14.90914627,16.52047999,1.0,0.0
229.616118,1.574875031,6.035449219,14.93579086,16.18594228,1.0,0.0
229.626059,0.6246510315,5.388793945,14.78714996,15.7508442,1.0,0.0
229.636,-0.02350112915,4.586013336,14.54435486,15.25025668,1.0,0.0
229.645941,-0.3329077148,3.776496735,14.1032222,14.60389097,1.0,0.0
229.655882,-0.6821315002,3.30437851,13.46330292,13.87965224,1.0,0.0
229.665823,-1.083147583,3.305426331,12.6885141,13.1566501,1.0,0.0
229.675764,-1.314416656,3.669319611,11.84801193,12.47264945,1.0,0.0
229.685704,-1.061592407,4.155059509,10.98625397,11.79361158,1.0,0.0
229.695645,-0.6026467896,4.686753845,10.12240036,11.17102653,1.0,0.0
229.705586,-0.3405418396,4.927902374,9.291178894,10.52265156,1.0,0.0
229.715527,-0.08786727905,5.014123077,8.604257355,9.959035873,1.0,0.0
229.725468,0.1414558411,5.024900665,8.058043213,9.49745739,1.0,0.0
229.735409,0.2501298523,4.870721283,7.638914795,9.063085016,1.0,0.0
229.74535,0.3263214111,4.559668121,7.150630188,8.486964777,1.0,0.0
229.755291,0.3170407104,4.290228424,6.59229126,7.871777359,1.0,0.0
229.765232,0.01751358032,4.231251068,6.392905884,7.666357542,1.0,0.0
229.775172,-0.2523751831,4.263134766,6.568041687,7.834359123,1.0,0.0
229.785113,-0.04924758911,4.28364212,7.055428162,8.254155419,1.0,0.0
229.795054,0.3532653809,4.174369354,7.893535309,8.936333454,1.0,0.0
229.804995,0.3234773254,3.872746582,8.66218689,9.494013134,1.0,0.0
229.814936,-0.02694396973,3.639232178,9.22381897,9.915824384,1.0,0.0
229.824877,-0.3935316467,3.469485168,9.404792633,10.03206454,1.0,0.0
229.834818,-0.8732839966,3.273093567,9.095236359,9.705621611,1.0,0.0
229.844759,-1.461710358,3.133284302,8.586444397,9.256408324,1.0,0.0
229.8547,-1.944456482,3.097658386,8.140821075,8.924649364,1.0,0.0
229.864641,-2.035766602,3.095712433,7.923023987,8.746547331,1.0,0.0
229.874582,-1.632654877,3.127296753,7.995323639,8.739035817,1.0,0.0
229.884522,-0.850531311,3.169359283,8.311017151,8.935392989,1.0,0.0
229.894463,0.01721420288,3.323239288,8.849746857,9.45316006,1.0,0.0
229.904404,0.3811074829,3.587888947,9.289831696,9.965900006,1.0,0.0
229.914345,0.3192860413,3.840413818,9.16993103,9.94677621,1.0,0.0
229.924286,0.005688171387,4.175417175,8.507558441,9.476955818,1.0,0.0
229.934227,-0.3101550293,4.504133606,7.915240173,9.112323671,1.0,0.0
229.944168,-0.5855822754,4.65696579,7.365134125,8.733581032,1.0,0.0
229.954109,-0.7152127075,4.589007111,7.01695816,8.414761868,1.0,0.0
229.96405,-0.8146060181,4.412224731,7.024442596,8.335112707,1.0,0.0
229.973991,-0.7318281555,4.172124023,7.833360443,8.905264013,1.0,0.0
229.983931,-0.4504133606,3.994144135,9.289981384,10.12224351,1.0,0.0
229.993872,-0.3784130859,3.810625763,10.43045975,11.11119056,1.0,0.0
30.00732771,30.00315811,-11.59952866,0.693507843,32.17482735,1.0,1.0
30.01726971,26.71434723,-13.11617477,5.233267365,30.21717187,1.0,1.0
30.02721071,23.04592575,-7.204368439,20.22608963,31.49781453,1.0,1.0
30.03715171,19.19368652,-3.716321869,20.52935898,28.34895467,1.0,1.0
30.04709271,17.60339355,-2.559228058,14.92725861,23.2218036,1.0,1.0
30.05703471,17.6027948,-1.825004883,9.995614014,20.32489427,1.0,1.0
30.06697571,17.25267288,-1.220112762,7.555089111,18.87386469,1.0,1.0
30.07691671,14.58327393,-0.4430786133,6.164181519,15.83872883,1.0,1.0
30.08685771,11.60806091,-0.4427792358,4.703369293,12.53255019,1.0,1.0
30.09679971,11.82211578,-0.9066645813,2.885100403,12.20279749,1.0,1.0
30.10674071,6.417454834,-0.3469784546,-0.4308041382,6.441250872,1.0,1.0
30.11668171,-2.028282166,0.2421963501,-3.652105408,4.184550337,1.0,1.0
30.12662371,-3.529660034,-0.8126600647,-4.591551819,5.848184713,1.0,1.0
30.13656471,-2.846331024,-3.464395752,-4.477638702,6.336630538,1.0,1.0
30.14650571,-4.539460144,-5.378016357,-4.029171295,8.109499347,1.0,1.0
30.15644671,-6.286776581,-5.872138824,-2.90530838,9.079999501,1.0,1.0
30.16638871,-6.103407898,-5.765111389,-0.5487588501,8.413633791,1.0,1.0
30.17632971,-5.074297943,-5.456902313,1.265767822,7.5583365,1.0,1.0
30.18627071,-4.184548187,-4.241429901,1.57846756,6.16374326,1.0,1.0
30.19621171,-2.942580872,-2.784060516,0.3891906738,4.0695509,1.0,1.0
30.20615371,-1.545985107,-1.125509491,2.068847809,2.817263357,1.0,1.0
30.21609471,0.4343966675,1.977088623,5.371430054,5.74019518,1.0,1.0
30.22603571,-0.8873547363,5.291795654,4.457879791,6.975900795,1.0,1.0
30.23597671,-3.317401428,4.613406372,1.622176666,5.909325488,1.0,1.0
30.24591871,-3.567082214,1.247505798,1.11622879,3.940344268,1.0,1.0
30.25585971,-2.916385345,-1.160536652,1.593885498,3.520315296,1.0,1.0
30.26580071,-1.751507721,-1.898352356,1.281335449,2.883286579,1.0,1.0
30.27574171,0.076640625,-2.197580109,-0.1348695374,2.203048323,1.0,1.0
30.28568371,1.858684845,-3.058439941,-1.446591797,3.860232124,1.0,1.0
30.29562471,1.640588379,-2.864742737,-2.162103882,3.946260809,1.0,1.0
30.30556571,2.149380341,-1.879940643,-4.039350128,4.946752685,1.0,1.0
30.31550771,3.464994507,-0.8164022827,-5.05947876,6.186357971,1.0,1.0
30.32544871,4.017645264,-0.713865509,-4.13619873,5.81026827,1.0,1.0
30.33538971,5.393883362,-1.476379852,-1.997895355,5.938456116,1.0,1.0
30.34533071,7.392976227,-1.850451965,-0.6551875305,7.649152938,1.0,1.0
30.35527271,9.571545868,-1.980381775,-1.049916687,9.830499851,1.0,1.0
30.36521371,12.96873138,-2.39516922,-2.634970551,13.44871366,1.0,1.0
30.37515471,18.38357117,-4.111350403,-4.852010193,19.45252924,1.0,1.0
30.38509571,25.6874826,-7.925119629,-3.656147003,27.12971977,1.0,1.0
30.39503771,30.34983719,-11.44475052,-0.1975891113,32.4366147,1.0,1.0
30.40497871,29.4897258,-10.55649765,-2.67478775,31.43625391,1.0,1.0
30.41491971,27.53703644,-8.677604828,-2.56596405,28.9857443,1.0,1.0
30.42486071,26.91448105,-7.850724335,0.4068539429,28.03905656,1.0,1.0
30.43480271,26.69324112,-6.877897339,0.8894503784,27.57944371,1.0,1.0
30.44474371,26.75596069,-7.098239136,-0.2914439392,27.68305205,1.0,1.0
30.45468471,26.42260391,-8.76038269,-1.034798126,27.8562221,1.0,1.0
30.46462571,24.51048019,-8.82834137,-0.4427792358,26.05569619,1.0,1.0
30.47456771,22.91419968,-7.361990662,1.021625519,24.0894826,1.0,1.0
30.48450871,23.1779512,-6.563700714,2.504441986,24.2192448,1.0,1.0
30.49444971,23.90663589,-4.748874664,5.051545258,24.89170866,1.0,1.0
30.50439071,23.42269226,-2.946772156,5.954168243,24.34662396,1.0,1.0
30.51433271,21.81758011,-2.397414551,5.503904572,22.62846358,1.0,1.0
30.52427371,19.75367203,-2.092348938,5.576802979,20.63216455,1.0,1.0
30.53421471,16.92665085,-1.498683472,5.470074921,17.85159043,1.0,1.0
30.54415671,13.3905542,-1.1665242,4.76923233,14.26230337,1.0,1.0
30.55409771,9.791737976,-1.23792572,4.467310181,10.83362603,1.0,1.0
30.56403871,6.614295502,-1.590442657,4.27436142,8.03421299,1.0,1.0
30.57397971,4.261637878,-1.997595978,4.121229858,6.255915812,1.0,1.0
30.58392171,2.823578339,-2.091301117,3.950435028,5.286971903,1.0,1.0
30.59386271,1.30693222,-1.508862305,3.239114227,3.804812513,1.0,1.0
30.60380371,-0.9232800293,-0.6183641052,1.898951111,2.200189878,1.0,1.0
30.61374471,-3.051853638,0.2011816406,0.8810678101,3.182854876,1.0,1.0
30.62368671,-4.263134766,0.9854008484,0.0975970459,4.376626331,1.0,1.0
30.63362771,-6.291416931,1.613644409,-0.9306147766,6.561388507,1.0,1.0
30.64356871,-6.544839935,2.179467773,-0.2429447937,6.902465627,1.0,1.0
30.65350954,-5.555996246,1.906585236,1.413959656,6.041807963,1.0,1.0
30.66345154,-5.631738739,0.4288581848,2.959046631,6.376233805,1.0,1.0
30.67339254,-5.189558258,-2.847678223,4.849764862,7.652516278,1.0,1.0
30.68333354,-3.47861618,-3.813020782,5.265899506,7.373574142,1.0,1.0
30.69327454,-2.375559998,-2.754721527,2.749332733,4.55967175,1.0,1.0
30.70321654,-1.774110718,-1.874701538,0.9589059448,2.753447894,1.0,1.0
30.71315754,-0.6242019653,-0.9219328308,0.6057902527,1.267505451,1.0,1.0
30.72309854,0.06077362061,-0.6403683472,-0.7372169495,0.9783935218,1.0,1.0
30.73304054,0.4983137512,-1.158291321,-2.359692993,2.675463773,1.0,1.0
30.74298154,0.480201416,-1.472188568,-2.895279236,3.283378509,1.0,1.0
30.75292254,0.6267466736,-1.556313629,-1.947150879,2.57027626,1.0,1.0
30.76286354,-2.098037109,-2.978356476,4.350702667,5.674590797,1.0,1.0
30.77280554,-5.88785614,-2.899620209,5.314698029,8.445156151,1.0,1.0
30.78274654,0.5343887329,0.3011737061,0.4046086121,0.7348367492,1.0,1.0
30.79268754,5.231321411,0.7496411133,-0.8970845032,5.360358767,1.0,1.0
30.80262854,7.610923004,0.8584648132,-0.7387138367,7.694726047,1.0,1.0
30.81257054,10.622211,0.6532415771,1.53041748,10.75175654,1.0,1.0
30.82251154,14.08585831,0.3909869385,3.142565002,14.43745095,1.0,1.0
30.83245254,16.60990952,0.1065783691,3.862867126,17.05350977,1.0,1.0
30.84239354,19.67508545,-0.8074209595,5.932014313,20.56574117,1.0,1.0
30.85233554,21.86308548,-1.093625793,10.63493454,24.33705727,1.0,1.0
30.86227654,21.82775894,0.4602928162,19.91907806,29.55389316,1.0,1.0
30.87221754,23.97414551,0.9174421692,20.87289459,31.80061449,1.0,1.0
30.88215854,25.34858734,0.1983375549,13.92973297,28.92451691,1.0,1.0
30.89210054,23.94405807,-0.4688250732,8.080496521,25.27512884,1.0,1.0
30.90204154,24.75252686,-0.3882925415,4.08590332,25.09049547,1.0,1.0
30.91198254,26.31467834,1.241368561,3.61677887,26.5910583,1.0,1.0
30.92192354,26.50403458,3.731590118,5.918841705,27.41206488,1.0,1.0
30.93186554,27.05144623,6.170468445,6.511159973,28.50001102,1.0,1.0
30.94180654,25.93686401,6.909481659,4.566104736,27.22703003,1.0,1.0
30.95174754,24.72214005,4.782554626,2.31912735,25.28705971,1.0,1.0
30.96168954,31.98488708,2.731819153,-1.318009186,32.12838287,1.0,1.0
30.97163054,13.52033432,2.484234009,-1.306782532,13.80864002,1.0,1.0
30.98157154,6.050418091,2.508782959,11.64458496,13.360311,1.0,1.0
30.99151254,12.84254379,3.288511505,12.09499832,17.94531202,1.0,1.0
31.00145454,9.664801941,-0.02125579834,9.06350235,13.24975182,1.0,1.0
31.01139554,6.35009491,0.6698570251,7.426356812,9.794038457,1.0,1.0
31.02133654,4.137545929,2.471809845,5.464386749,7.286196042,1.0,1.0
31.03127754,4.001478882,3.543431396,2.956950989,6.108297509,1.0,1.0
31.04121954,4.900659027,4.585414581,1.597328339,6.898836395,1.0,1.0
31.05116054,3.802243195,4.613406372,1.945653992,6.286981877,1.0,1.0
31.06110154,2.157912598,3.475921783,2.368824005,4.72757297,1.0,1.0
31.07104254,1.445993042,2.105222168,1.890718231,3.177683383,1.0,1.0
31.08098454,0.8208929443,1.003064117,1.121467896,1.713969979,1.0,1.0
31.09092554,-0.1419049072,-0.3511697388,0.3553610229,0.5193636922,1.0,1.0
31.10086654,-1.368903351,-2.189646606,-0.04206253052,2.5826765,1.0,1.0
31.11080754,-2.108215942,-2.750081177,-0.8116122437,3.558965492,1.0,1.0
31.12074954,-2.540816345,-2.140997772,-0.3329077148,3.33922846,1.0,1.0
31.13069054,-3.295846252,-1.658101959,1.263522491,3.89979406,1.0,1.0
31.14063154,-1.745520172,-2.363734589,0.1857637024,2.944246938,1.0,1.0
31.15057254,-1.272054749,-2.905907135,-2.149979095,3.832079027,1.0,1.0
31.16051454,-2.338736572,-2.893033905,-2.095492401,4.269709865,1.0,1.0
31.17045554,-2.596500549,-3.212020569,0.7605683899,4.199685168,1.0,1.0
31.18039654,-1.221759338,-3.635639648,2.424657898,4.537569554,1.0,1.0
31.19033754,-0.1145118713,-3.344794464,0.7325765991,3.425993498,1.0,1.0
31.20027954,-0.126486969,-2.254012756,-3.283122711,3.984402991,1.0,1.0
31.21022054,-0.2330653381,-1.557062073,-3.376079407,3.725140791,1.0,1.0
31.22016154,4.039050751,-0.4287084961,-1.80195282,4.443507163,1.0,1.0
31.23010354,10.55110886,3.43535614,5.214107208,12.26028074,1.0,1.0
31.24004454,6.363866272,3.999083862,5.199737091,9.139405423,1.0,1.0
31.24998554,1.095122681,1.103056183,2.134860535,2.640768095,1.0,1.0
31.25992654,0.2998265076,1.409618683,5.033283234,5.23553826,1.0,1.0
31.26986854,3.347788239,4.155508575,5.695506134,7.804788769,1.0,1.0
31.27980954,7.923173676,8.399034119,4.485123138,12.38696027,1.0,1.0
31.28975054,12.45829285,12.58163635,4.860093384,18.36102235,1.0,1.0
31.29969154,19.82911514,16.60107788,6.075865173,26.56512247,1.0,1.0
31.30963354,25.39439209,19.24742477,4.95993576,32.24809255,1.0,1.0
31.31957454,25.3265831,20.17654266,4.619094543,32.70878658,1.0,1.0
31.32951554,25.18078629,20.56468552,6.477480011,33.15020416,1.0,1.0
31.33945654,22.91494812,21.14472931,8.790470123,32.39547484,1.0,1.0
31.34939854,20.12744476,24.09928528,7.276368713,32.23096532,1.0,1.0
31.35933954,20.94324829,24.93290176,5.702242126,33.05729579,1.0,1.0
31.36928054,20.77709381,23.0625412,5.36604126,31.50179094,1.0,1.0
31.37922254,20.2901564,21.64349213,6.866970062,30.45137889,1.0,1.0
31.38916354,19.88390121,19.93644196,9.722132721,29.7884392,1.0,1.0
31.39910454,17.95635956,16.49884048,11.24850861,26.85463706,1.0,1.0
31.40904554,15.87209381,15.08862305,11.3387709,24.66085224,1.0,1.0
31.41898754,13.89515488,13.31271606,9.903705139,21.64225297,1.0,1.0
31.42892854,12.21160583,10.95706467,9.569450226,18.99355051,1.0,1.0
31.43886954,11.46061752,9.494156799,9.105265503,17.44679418,1.0,1.0
31.44881054,10.31744476,8.863967285,7.597301331,15.58006964,1.0,1.0
31.45875254,9.992620239,8.405470734,5.818250885,14.29532934,1.0,1.0
31.46869354,7.491621094,4.934039612,7.431296539,11.64874679,1.0,1.0
31.47863454,5.915548553,1.595083008,8.456065521,10.44236796,1.0,1.0
31.48857554,3.877985687,0.3125500488,9.029672699,9.832164033,1.0,1.0
31.49851754,3.116818542,0.393381958,8.567134552,9.124971322,1.0,1.0
31.50845854,1.532662811,-0.1022373962,7.436385956,7.593374998,1.0,1.0
31.51839954,1.508413239,-0.6243516541,5.423072662,5.663465599,1.0,1.0
31.52834054,3.447780304,-0.8054750061,2.425106964,4.29151754,1.0,1.0
31.53828254,2.924169159,-1.246308289,1.726809082,3.617446506,1.0,1.0
31.54822354,2.411784668,-1.829196167,1.396296387,3.333512787,1.0,1.0
31.55816454,0.9165440369,-3.308270416,4.025429077,5.290442833,1.0,1.0
31.56810554,1.053958282,-3.349135437,7.352709961,8.147998528,1.0,1.0
31.57804754,1.476828918,-3.708238678,8.250842285,9.1656127,1.0,1.0
31.58798854,1.443448334,-3.805686035,7.771389313,8.772757898,1.0,1.0
31.59792954,1.863175507,-2.983146515,6.057603149,7.004651456,1.0,1.0
31.60787054,2.676134949,-2.199675751,3.883075104,5.203704828,1.0,1.0
31.61781254,2.280956726,-1.504221954,2.810405731,3.91967188,1.0,1.0
31.62775354,1.614243164,-0.9966275024,3.154689789,3.681183918,1.0,1.0
31.63769454,1.494492188,-0.9160949707,4.015848999,4.381755365,1.0,1.0
31.64763979,1.5726297,-0.599203949,5.365891571,5.623611108,1.0,1.0
31.65758079,1.948049011,-0.1466949463,7.377558289,7.631826823,1.0,1.0
31.66752179,2.006427612,-0.4090992737,8.991202698,9.221433724,1.0,1.0
31.67746279,2.586471405,-0.5528004456,9.674980774,10.02998882,1.0,1.0
31.68740479,3.481759644,-0.6587800598,9.427245941,10.07122671,1.0,1.0
31.69734579,4.683011627,-0.5553451538,8.305179291,9.550654909,1.0,1.0
31.70728679,6.103856964,0.01990859985,7.519313507,9.684913103,1.0,1.0
31.71722779,6.345903625,0.5081932068,7.335944824,9.71312718,1.0,1.0
31.72716979,6.746919708,1.43686203,7.732769623,10.36249121,1.0,1.0
31.73711079,6.877597961,2.470163269,7.717501373,10.62840006,1.0,1.0
31.74705179,6.976542206,3.333867188,7.219187622,10.57844419,1.0,1.0
31.75699279,6.522835693,4.076173553,6.928192749,10.35192886,1.0,1.0
31.76693479,6.685996399,4.51296524,7.224277039,10.82864635,1.0,1.0
31.77687579,5.964347076,5.668262787,7.545209656,11.16390737,1.0,1.0
31.78681679,5.953120422,7.575446777,6.960675201,11.88604374,1.0,1.0
31.79675779,5.699547729,9.293424225,7.226222992,13.07940659,1.0,1.0
31.80669979,5.167404327,10.19140686,7.896529083,13.88963689,1.0,1.0
31.81664079,5.347479858,10.48389862,7.739206238,14.08555942,1.0,1.0
31.82658179,5.618416443,9.618398438,7.491172028,13.42377928,1.0,1.0
31.83652279,5.121150513,8.701255646,8.191266174,13.00134124,1.0,1.0
31.84646479,4.360282745,8.540939026,8.673563232,12.93021284,1.0,1.0
31.85640579,4.571942596,8.862620087,8.480464783,13.09072102,1.0,1.0
31.86634679,4.845573578,9.245074768,7.904013519,13.0929149,1.0,1.0
31.87628779,5.379662933,9.889933777,6.891069946,13.19993971,1.0,1.0
31.88622979,5.194947052,10.32717453,5.93111618,12.99292684,1.0,1.0
31.89617079,4.352648621,10.5079985,5.719007263,12.73069624,1.0,1.0
31.90611179,3.317551117,10.74091415,5.832022247,12.66435414,1.0,1.0
31.91605379,2.173180847,10.91799591,6.145769806,12.71596777,1.0,1.0
31.92599479,1.31636261,10.79899338,6.389013977,12.61628186,1.0,1.0
31.93593579,0.2653981018,10.18302429,6.409221954,12.03505488,1.0,1.0
31.94587679,-0.6054908752,9.736802216,6.473887482,11.70825161,1.0,1.0
31.95581879,-1.253493347,9.554780731,5.827531586,11.26166972,1.0,1.0
31.96575979,-1.636546783,9.16289566,4.695884857,10.42536699,1.0,1.0
31.97570079,-1.55152359,8.674910431,3.86945343,9.624654086,1.0,1.0
31.98564179,-0.9674382019,8.364156647,3.361858978,9.066264329,1.0,1.0
31.99558379,5.675747223,9.77377533,5.509742432,12.5737048,1.0,1.0
32.00552479,7.226372681,9.96567627,5.125491486,13.3343852,1.0,1.0
32.01546579,4.078568573,6.637048187,5.299130402,9.421566391,1.0,1.0
32.02540679,-0.5998027039,2.373164978,4.739893341,5.334628776,1.0,1.0
32.03534879,-1.978735199,1.9972966,10.61742096,10.9833608,1.0,1.0
32.04528979,-1.832788696,6.223009186,9.730365601,11.69465572,1.0,1.0
32.05523079,-0.9988728333,7.191944275,5.998027039,9.417968876,1.0,1.0
32.06517179,-1.779200134,5.526956635,2.863395538,6.473935184,1.0,1.0
32.07511379,-1.69776947,3.99818573,1.666634216,4.65248105,1.0,1.0
32.08505479,-1.143921204,2.618804169,1.899400177,3.431386313,1.0,1.0
32.09499579,-0.2064207458,1.506167908,1.606159973,2.211538186,1.0,1.0
32.10493679,1.276844788,0.4924758911,1.440005493,1.986575177,1.0,1.0
32.11487879,-0.06930587769,-0.002544708252,1.715582428,1.716983648,1.0,1.0
32.12481979,-1.180295563,1.21217926,0.5691165161,1.785040555,1.0,1.0
32.13476079,-2.521207123,2.023941193,0.2842588806,3.245554871,1.0,1.0
32.14470179,-2.329455872,3.800297241,0.7726931763,4.523900808,1.0,1.0
32.15464379,-2.55309082,3.921096039,2.329755249,5.226951923,1.0,1.0
32.16458479,-2.842888184,3.971990204,3.55121521,6.039027146,1.0,1.0
32.17452579,-2.453547821,4.175267487,4.508175201,6.616373564,1.0,1.0
32.18446779,-2.640359344,3.477418671,4.607119446,6.347400071,1.0,1.0
32.19440879,-3.547772369,2.74499176,3.721111908,5.828236644,1.0,1.0
32.20434979,-3.873495026,2.355501709,4.039499817,6.072059847,1.0,1.0
32.21429079,-3.347937927,1.663939819,4.268074493,5.673961929,1.0,1.0
32.22423279,-1.166973267,1.623673553,5.44792099,5.80327369,1.0,1.0
32.23417379,2.0862117,2.297871552,8.181536407,8.750430327,1.0,1.0
32.24411479,3.40841217,2.560874634,12.54316635,13.24788189,1.0,1.0
32.25405579,1.82186142,2.140698395,16.29197067,16.53269721,1.0,1.0
32.26399779,1.194515991,3.03987854,17.69350616,17.99243981,1.0,1.0
32.27393879,0.1079255676,4.299808502,17.80098267,18.31324616,1.0,1.0
32.28387979,0.3947291565,5.965245209,17.7514357,18.73108195,1.0,1.0
32.29382079,1.472487946,6.719526672,16.07222763,17.48247009,1.0,1.0
32.30376279,1.7106427,6.954388275,14.57279572,16.23749333,1.0,1.0
32.31370379,2.505040741,7.982001343,14.60677505,16.83286821,1.0,1.0
32.32364479,3.095413055,8.35442688,16.76588516,18.98612482,1.0,1.0
32.33358579,3.071013794,7.623047791,19.63616638,21.28663932,1.0,1.0
32.34352779,2.137255554,7.249125366,22.13851273,23.39297813,1.0,1.0
32.35346879,1.233435059,7.142546997,23.05924805,24.17160028,1.0,1.0
32.36340979,0.1621128845,6.695875854,22.15423004,23.14456616,1.0,1.0
32.37335079,-0.8051756287,6.063590698,19.58751755,20.52038702,1.0,1.0
32.38329279,-1.211730194,5.9335112,17.21420288,18.24838694,1.0,1.0
32.39323379,-0.8349636841,6.249354401,16.03001541,17.22535889,1.0,1.0
32.40317479,-0.8228388977,6.340215454,15.36015839,16.63760384,1.0,1.0
32.41311579,-1.30932724,5.777385864,14.64270035,15.79560694,1.0,1.0
32.42305779,-1.850601654,4.758155365,13.27589264,14.22371591,1.0,1.0
32.43299879,-2.280058594,3.726800079,11.94560898,12.71948426,1.0,1.0
32.44293979,-2.520458679,3.207978973,10.77115128,11.51787918,1.0,1.0
32.45288079,-2.401905212,3.011437683,9.620943146,10.36341896,1.0,1.0
32.46282279,-2.168839874,3.049608307,8.680149536,9.452458579,1.0,1.0
32.47276379,-1.983076172,3.090922394,7.573351135,8.416771339,1.0,1.0
32.48270479,-1.754800873,2.779569855,6.534361725,7.314589382,1.0,1.0
32.49264579,-0.730480957,1.955383759,5.384153595,5.774620161,1.0,1.0
32.50258779,0.02903961182,1.188528442,4.178560638,4.344400093,1.0,1.0
32.51252879,0.3505709839,0.9310638428,3.33356781,3.47885818,1.0,1.0
32.52246979,0.7578739929,1.095871124,3.03404068,3.31371534,1.0,1.0
32.53241079,1.010698242,1.609752502,2.921025696,3.484997155,1.0,1.0
32.54235279,1.621428223,2.362686768,2.6701474,3.916759551,1.0,1.0
32.55229379,2.807112579,2.427352295,3.216960297,4.9112884,1.0,1.0
32.56223479,3.389551392,1.873653717,4.16553772,5.687823958,1.0,1.0
32.57217579,1.99145874,1.812131653,5.067262573,5.738194753,1.0,1.0
32.58211779,0.349972229,2.210603027,5.961652679,6.367931295,1.0,1.0
32.59205879,0.0390687561,2.510579224,5.755231934,6.279110527,1.0,1.0
32.60199979,0.287252655,2.35894455,5.215753784,5.731598469,1.0,1.0
32.61194179,0.1050814819,2.038161621,4.430636444,4.878082022,1.0,1.0
32.62188279,-0.6315367126,1.794169006,3.331621857,3.83635051,1.0,1.0
32.63182379,-1.252595215,1.689237213,2.407743073,3.196833408,1.0,1.0
32.64176479,-1.432521057,1.746867371,1.80659317,2.892652947,1.0,1.0
32.65170679,-1.237027588,1.864971771,1.248852997,2.562809156,1.0,1.0
32.66164779,-0.6979985046,1.804347839,0.8491841125,2.112814875,1.0,1.0
32.67158879,-0.3396437073,1.500629425,0.9663903809,1.816908607,1.0,1.0
32.68152979,-0.2842588806,0.9996212769,1.437460785,1.773792354,1.0,1.0
32.69147179,-0.5712121582,0.655486908,2.371219025,2.525594203,1.0,1.0
32.70141279,-1.435514832,0.8991801453,3.775448914,4.138023956,1.0,1.0
32.71135379,-3.474724274,1.340013428,5.131329346,6.340337974,1.0,1.0
32.72129479,-5.067861328,2.338736572,6.127956848,8.288833593,1.0,1.0
32.73123679,-4.78914093,4.228556671,6.958130493,9.446276638,1.0,1.0
32.74117779,-2.803819427,6.971901855,8.209827576,11.12969396,1.0,1.0
32.75111879,0.7634124756,11.35119507,9.582024078,14.87439456,1.0,1.0
32.76105979,8.121960297,18.98666702,10.00594254,22.94730158,1.0,1.0
32.77100179,7.803572388,21.94556396,13.13952621,26.74230111,1.0,1.0
32.78094279,2.739303589,19.10851364,16.77277084,25.57273782,1.0,1.0
32.79088379,-1.606010284,16.57607986,20.77529755,26.62627801,1.0,1.0
32.80082479,-4.248764648,15.36464905,25.69092545,30.23488203,1.0,1.0
32.81076679,-5.360353088,13.85219421,30.03474243,33.5067519,1.0,1.0
32.82070779,-5.864205322,11.49384842,31.77906509,34.29878181,1.0,1.0
32.83064879,-6.002966766,9.094188538,29.9476236,31.86848026,1.0,1.0
32.84058979,-4.84302887,7.934550018,26.46511551,28.05021126,1.0,1.0
32.85053179,-2.948867798,7.79983017,21.99062027,23.51851509,1.0,1.0
32.86047279,-1.030307465,7.790250092,17.70877441,19.37395729,1.0,1.0
32.87041379,0.3626957703,7.618706818,13.56075027,15.55860501,1.0,1.0
32.88035479,1.381477203,7.266040192,9.24717041,11.84119842,1.0,1.0
32.89029679,2.170187073,6.299051056,5.488037567,8.631703915,1.0,1.0
32.90023779,2.258653107,4.596790924,2.707419891,5.793282586,1.0,1.0
32.91017879,1.761536865,2.613265686,0.8379574585,3.261033943,1.0,1.0
32.92012079,1.460512848,0.5888754272,-0.3769161987,1.619239905,1.0,1.0
32.93006179,1.141675873,-1.23448288,-0.9993218994,1.956020459,1.0,1.0
32.94000279,0.6339317322,-2.760409698,-1.277144165,3.106900121,1.0,1.0
32.94994379,0.1411564636,-3.645519104,-1.382375336,3.901371074,1.0,1.0
32.95988579,-0.3427871704,-3.587140503,-1.644929352,3.96117061,1.0,1.0
32.96982679,-0.5454656982,-3.27384201,-2.377356262,4.082572367,1.0,1.0
32.97976779,-0.4207749939,-3.308420105,-3.450025635,4.798476015,1.0,1.0
32.98970879,-0.2856060791,-3.766018524,-4.451742554,5.838020051,1.0,1.0
32.99965079,-0.2228865051,-4.401596832,-5.144202576,6.773961412,1.0,1.0
33.00959179,0.1529818726,-4.845573578,-5.603746948,7.409788567,1.0,1.0
33.01953279,1.106049957,-4.816234589,-5.839057617,7.649448083,1.0,1.0
33.02947379,2.408940582,-4.527934113,-5.869594116,7.794698015,1.0,1.0
33.03941579,3.943549347,-4.266427917,-5.731880493,8.16139955,1.0,1.0
33.04935679,5.495821381,-4.191134491,-5.526657257,8.84949724,1.0,1.0
33.05929779,6.91052948,-4.326453094,-5.30990799,9.729786068,1.0,1.0
33.06923879,8.319699097,-4.484823761,-5.03957016,10.71112994,1.0,1.0
33.07918079,9.201066284,-4.509672089,-4.686454468,11.26763589,1.0,1.0
33.08912179,9.081165619,-4.20415741,-4.184697876,10.8468523,1.0,1.0
33.09906279,8.083939362,-3.535647583,-3.553759918,9.512102238,1.0,1.0
33.10900379,7.23580307,-2.658920746,-3.066523132,8.29640101,1.0,1.0
33.11894579,6.217021637,-1.415306854,-2.909499664,7.008540492,1.0,1.0
33.12888679,4.010310516,-0.3376977539,-2.741848297,4.869739448,1.0,1.0
33.13882779,1.209185486,0.4547543335,-2.542762299,2.852116959,1.0,1.0
33.14876879,-1.059945831,1.46021347,-2.53677475,3.11302661,1.0,1.0
33.15871079,-2.961591339,2.793640594,-2.234403534,4.644137184,1.0,1.0
33.16865179,-3.774401093,4.166884918,-1.835034027,5.91408348,1.0,1.0
33.17859279,-3.076252899,5.303022308,-1.913021851,6.422229372,1.0,1.0
33.18853379,-3.106639709,5.460494843,-1.981130219,6.587343254,1.0,1.0
33.19847579,-4.367467804,5.31215332,-1.020877075,6.95240519,1.0,1.0
33.20841679,-7.748037872,4.89796463,1.265019379,9.253238483,1.0,1.0
33.21835779,-14.77263016,4.202660522,5.679489441,16.37527275,1.0,1.0
33.22829879,-24.01710617,4.625531158,12.31968109,27.38597213,1.0,1.0
33.23824079,-33.49210281,6.043682098,19.82642075,39.38697759,1.0,1.0
33.24818179,-41.715103,6.500083008,26.03820328,49.60230768,1.0,1.0
33.25812279,-46.96887772,5.169949036,29.52415421,55.71785646,1.0,1.0
33.26806379,-48.44735321,1.418899384,28.93408127,56.44767814,1.0,1.0
33.27800579,-46.42490891,-4.53062851,25.66951996,53.24211694,1.0,1.0
33.28794679,-41.71600113,-9.852661285,22.09674957,48.22412287,1.0,1.0
33.29788779,-36.13635406,-12.14723969,19.20566162,42.68780804,1.0,1.0
33.30782879,-31.47205353,-11.7077536,17.39457779,37.8170991,1.0,1.0
33.31777079,-27.63193909,-10.6088887,15.85712494,33.57857931,1.0,1.0
33.32771179,-23.33722,-10.22568558,13.85548737,29.00284491,1.0,1.0
33.33765279,-18.36755447,-10.54467224,10.84479813,23.79426016,1.0,1.0
33.34759379,-13.28008392,-11.01349731,6.796466675,18.54318504,1.0,1.0
33.35753579,-8.022267609,-10.74854828,2.498903503,13.64304168,1.0,1.0
33.36747679,-2.74618927,-9.750872955,-1.735491028,10.27779198,1.0,1.0
33.37741779,1.915117493,-8.66682724,-5.282215576,10.32876424,1.0,1.0
33.38735879,5.201383667,-8.292306061,-7.592361603,12.38792503,1.0,1.0
33.39730079,6.663094025,-8.722062378,-8.665779419,13.98452456,1.0,1.0
33.40724179,6.909481659,-9.372908936,-9.093589783,14.77449606,1.0,1.0
33.41718279,7.341932373,-9.555529175,-9.216633911,15.17097391,1.0,1.0
33.42712379,7.54940094,-9.264833679,-8.5638414,14.70272006,1.0,1.0
33.43706579,6.210884399,-8.94884079,-7.310497742,13.11869711,1.0,1.0
33.44700679,4.03216507,-8.173602905,-6.383774872,11.12738609,1.0,1.0
33.45694779,2.532433777,-6.687343597,-6.347550201,9.561651467,1.0,1.0
33.46688879,2.238145752,-5.148094482,-7.278614044,9.191865731,1.0,1.0
33.47683079,2.496658173,-4.682412872,-8.354576569,9.897335095,1.0,1.0
33.48677179,2.687810669,-4.756209412,-9.0482341,10.56959765,1.0,1.0
33.49671279,2.593506775,-4.541256409,-9.064250793,10.46469921,1.0,1.0
33.50665379,1.811682587,-4.251608734,-8.212671661,9.423711925,1.0,1.0
33.51659579,0.2921923828,-4.210743713,-6.495592346,7.746512695,1.0,1.0
33.52653679,-1.508562927,-4.409829712,-4.257147217,6.312342087,1.0,1.0
33.53647779,-3.237767029,-4.774022369,-2.13306427,6.150153502,1.0,1.0
33.54641879,-5.17414032,-5.173990631,-0.1017883301,7.317941511,1.0,1.0
33.55636079,-7.189249878,-5.247487793,1.695075073,9.060613746,1.0,1.0
33.56630179,-8.85408783,-4.909490662,2.749931488,10.49095291,1.0,1.0
33.57624279,-10.08931915,-4.536017303,3.236719208,11.52589108,1.0,1.0
33.58618379,-11.17246674,-4.202810211,2.825823669,12.26673983,1.0,1.0
33.59612579,-11.79636932,-3.745511169,1.366957397,12.45197798,1.0,1.0
33.60606679,-12.04395447,-3.298989716,-0.5252577209,12.49864265,1.0,1.0
33.61600779,-11.98168396,-3.035986633,-2.225122833,12.55902612,1.0,1.0
33.62594879,-11.62258072,-2.434237976,-3.581452332,12.40309227,1.0,1.0
33.63589079,-11.23907822,-1.659898224,-4.417613525,12.18964522,1.0,1.0
33.64583179,-11.15525253,-1.083297272,-4.600383453,12.11514424,1.0,1.0
33.65577004,-11.72466843,-0.8815168762,-4.498595123,12.58897453,1.0,1.0
33.66571204,-12.61247223,-1.734443207,-4.539310455,13.51621576,1.0,1.0
33.67565304,-13.6905304,-3.27384201,-4.714146881,14.84492657,1.0,1.0
33.68559404,-14.70586899,-4.980443115,-4.438420258,16.14828074,1.0,1.0
33.69553504,-15.3706366,-6.59348877,-3.741170197,17.13846312,1.0,1.0
33.70547704,-16.67577255,-8.48076416,-2.742147675,18.90830835,1.0,1.0
33.71541804,-18.91212204,-11.19626724,-1.263821869,22.01413196,1.0,1.0
33.72535904,-21.84347626,-14.43343552,0.1196012878,26.18159316,1.0,1.0
33.73530004,-24.71794876,-17.14504669,0.664019165,30.08937584,1.0,1.0
33.74524104,-26.75147003,-18.47592911,0.6053411865,32.51718843,1.0,1.0
33.75518304,-28.58380966,-18.54912689,0.8885522461,34.08656346,1.0,1.0
33.76512404,-30.87509491,-18.28372879,1.957778778,35.9360421,1.0,1.0
33.77506504,-33.10171463,-18.56843674,2.999163208,38.0723697,1.0,1.0
33.78500704,-35.00440796,-20.05110352,3.329526215,40.47766141,1.0,1.0
33.79494804,-35.82829468,-22.47770737,3.176843719,42.41469514,1.0,1.0
33.80488904,-34.77283951,-25.02331375,2.821482697,42.93340614,1.0,1.0
33.81483004,-32.20582764,-27.03977051,2.08037384,42.10335471,1.0,1.0
33.82477204,-29.36398727,-28.32260284,0.9599537659,40.80851739,1.0,1.0
33.83471304,-26.57498703,-28.35927658,-0.09355545044,38.86498754,1.0,1.0
33.84465404,-23.98073181,-27.12135086,-0.7550299072,36.21067855,1.0,1.0
33.85459504,-21.80036591,-25.33795944,-0.9285191345,33.43845526,1.0,1.0
33.86453604,-20.07176056,-23.67401962,-0.6982978821,31.04548916,1.0,1.0
33.87447804,-18.63325195,-22.18446716,-0.01317260742,28.97151765,1.0,1.0
33.88441904,-17.02469696,-20.72754684,0.8765771484,26.83728549,1.0,1.0
33.89436004,-15.2869606,-19.14683395,1.796863403,24.56666711,1.0,1.0
33.90430104,-13.65535355,-17.53199203,2.426603851,22.35459307,1.0,1.0
33.91424304,-12.00982544,-16.01714218,2.761307831,20.20914574,1.0,1.0
33.92418404,-10.42492126,-14.73880051,2.905607758,18.28534332,1.0,1.0
33.93412504,-9.207951965,-13.83767441,2.931803284,16.87788739,1.0,1.0
33.94406604,-8.342900848,-13.14925598,2.897374878,15.83987717,1.0,1.0
33.95400804,-7.840844879,-12.561129,2.766996002,15.06376703,1.0,1.0
33.96394904,-7.671247559,-12.22148529,2.565365295,14.65584665,1.0,1.0
33.97389004,-7.626490631,-12.16939362,2.451003113,14.56931421,1.0,1.0
33.98383104,-7.498057709,-12.38913666,2.352358246,14.671236,1.0,1.0
33.99377304,-7.210206299,-12.67159927,2.158211975,14.73819466,1.0,1.0
34.00371404,-6.897207184,-12.88191193,2.029629364,14.75244106,1.0,1.0
34.01365504,-6.437064056,-12.98130524,1.963766327,14.6221222,1.0,1.0
34.02359604,-5.81765213,-13.11213318,1.815873871,14.45927075,1.0,1.0
34.03353804,-5.261708221,-13.25299026,1.620829468,14.35111189,1.0,1.0
34.04347904,-4.844974823,-13.48860031,1.331481171,14.39405994,1.0,1.0
34.05342004,-4.215982819,-13.86731277,0.9280700684,14.52371126,1.0,1.0
34.06336104,-3.087928619,-14.22806259,0.4096980286,14.56505821,1.0,1.0
34.07330304,-1.674268341,-14.25470718,-0.4799020386,14.36071577,1.0,1.0
34.08324404,-0.23635849,-13.80369507,-1.535057831,13.89079787,1.0,1.0
34.09318504,1.083596649,-13.28023361,-2.556533661,13.56741135,1.0,1.0
34.10312604,2.367925873,-12.9034671,-3.390150146,13.54989499,1.0,1.0
34.11306804,3.547173615,-12.72488846,-3.876638489,13.76711854,1.0,1.0
34.12300904,4.768184509,-12.16759735,-3.876788177,13.63141575,1.0,1.0
34.13295004,5.717210999,-10.97442856,-3.42712326,12.8401619,1.0,1.0
34.14289104,5.930816803,-9.483828278,-2.676434326,11.50134285,1.0,1.0
34.15283304,5.480403442,-8.114625549,-1.94355835,9.982954911,1.0,1.0
34.16277404,4.759502563,-7.190896454,-1.369951172,8.73147311,1.0,1.0
34.17271504,4.417763214,-6.616989899,-1.197809143,8.045864396,1.0,1.0
34.18265604,4.866230621,-6.010451202,-1.477577362,7.873306737,1.0,1.0
34.19259804,6.118975525,-5.326822815,-1.967807922,8.348004001,1.0,1.0
34.20253904,7.941884766,-4.506079559,-2.4126828,9.444539423,1.0,1.0
34.21248004,10.07345215,-3.125051422,-2.586770782,10.85963939,1.0,1.0
34.22242104,11.99291061,-1.357826385,-2.383194122,12.30256931,1.0,1.0
34.23236304,13.67915405,-0.1839674377,-2.187251587,13.85413906,1.0,1.0
34.24230404,14.85660553,0.0860710144,-2.438129883,15.05558413,1.0,1.0
34.25224504,15.3466864,-0.2406994629,-3.498973846,15.74234854,1.0,1.0
34.26218604,15.33860321,-1.130748596,-5.035079498,16.18342876,1.0,1.0
34.27212804,14.69539078,-3.032244415,-6.354585571,16.29508435,1.0,1.0
34.28206904,12.74629395,-6.197562103,-6.642137604,15.65234095,1.0,1.0
34.29201004,10.02031265,-9.563911743,-6.281387787,15.20956627,1.0,1.0
34.30195104,6.475534058,-12.75422745,-5.637127533,15.37465661,1.0,1.0
34.31189304,1.775308228,-16.37669449,-4.424948273,17.05661188,1.0,1.0
34.32183404,-3.576362915,-20.42562469,-2.883304138,20.93585342,1.0,1.0
34.33177504,-8.644822998,-24.12802551,-1.33267868,25.66457894,1.0,1.0
34.34171604,-12.81634827,-27.14769608,-0.1772314453,30.02145226,1.0,1.0
34.35165804,-15.50894897,-29.49840775,0.5867797852,33.33208467,1.0,1.0
34.36159904,-17.80622177,-31.054422,1.28358078,35.82019317,1.0,1.0
34.37154004,-22.10917374,-32.09969833,2.249222717,39.04183909,1.0,1.0
34.38148104,-30.4811142,-32.33620651,3.698808289,44.59158841,1.0,1.0
34.39142304,-39.24449066,-30.181138,5.125192108,49.77246962,1.0,1.0
34.40136404,-43.31317978,-25.353078,5.757626953,50.51693157,1.0,1.0
34.41130504,-41.90176483,-20.50211563,5.558990021,46.97868678,1.0,1.0
34.42124604,-37.83711731,-17.68841675,4.870721283,42.05058215,1.0,1.0
34.43118804,-32.62869827,-15.57406357,3.283422089,36.30377759,1.0,1.0
34.44112904,-27.34333923,-13.00675232,0.4037104797,30.28195483,1.0,1.0
34.45107004,-23.87804535,-10.7097789,-3.185825043,26.36304032,1.0,1.0
34.46101104,-22.5197699,-9.808652802,-6.265221405,25.34960957,1.0,1.0
34.47095304,-23.24141922,-10.35980667,-7.023843842,26.39741548,1.0,1.0
34.48089404,-25.86770782,-11.61853912,-4.801864471,28.76085294,1.0,1.0
34.49083504,-28.70790161,-12.64570312,-1.223705292,31.39354834,1.0,1.0
34.50077604,-31.80002151,-12.88236099,2.251917114,34.38412023,1.0,1.0
34.51071804,-34.1053775,-10.70947952,5.727240143,36.20319055,1.0,1.0
34.52065904,-32.60519714,-6.395899658,9.354048157,34.51817826,1.0,1.0
34.53060004,-28.97644318,-3.154240723,12.71216492,31.79909795,1.0,1.0
34.54054104,-24.11305664,-0.9205856323,14.62533646,28.21679367,1.0,1.0
34.55048304,-19.85740631,0.212258606,14.20366333,24.41527577,1.0,1.0
34.56042404,-17.26943802,0.1604663086,11.76523407,20.89688904,1.0,1.0
34.57036504,-15.20118896,-0.895587616,8.049211578,17.22405382,1.0,1.0
34.58030604,-13.33561844,-2.285746765,3.843108215,14.06530619,1.0,1.0
34.59024804,-11.32035919,-3.237018585,-0.4402345276,11.78230147,1.0,1.0
34.60018904,-9.469009094,-3.393592987,-4.609664154,11.06470109,1.0,1.0
34.61013004,-8.384214935,-2.836152191,-8.130043488,12.01817068,1.0,1.0
34.62007104,-8.686586151,-2.136656799,-10.55829391,13.83833992,1.0,1.0
34.63001304,-9.614356842,-1.918560333,-11.59638519,15.18528501,1.0,1.0
34.63995404,-10.42896286,-2.633773041,-10.89868607,15.31278501,1.0,1.0
34.64989567,-10.64601151,-3.885619812,-8.653055878,14.25871587,1.0,1.0
34.65983667,-10.19200562,-4.753964081,-6.078409882,12.78374826,1.0,1.0
34.66977867,-9.946366425,-5.15542923,-3.649111633,11.78238818,1.0,1.0
34.67971967,-10.74929672,-5.214406586,-1.589245148,12.05251493,1.0,1.0
34.68966067,-12.46068787,-4.570745087,0.03457809448,13.27259012,1.0,1.0
34.69960167,-14.87516693,-3.407214661,1.16427887,15.30474594,1.0,1.0
34.70954367,-18.15080521,-2.441872101,1.560804291,18.38071215,1.0,1.0
34.71948467,-21.46147064,-1.92245224,0.9517208862,21.56841017,1.0,1.0
34.72942567,-23.55576553,-1.963916016,-0.62599823,23.64578038,1.0,1.0
34.73936667,-24.09434555,-2.941682739,-2.714155884,24.42452921,1.0,1.0
34.74930867,-23.95244064,-4.914879456,-4.611909485,24.88262771,1.0,1.0
34.75924967,-24.0790773,-7.298672333,-5.818699951,25.82498501,1.0,1.0
34.76919067,-24.93784149,-9.602082367,-6.005062408,27.38898864,1.0,1.0
34.77913167,-26.59489563,-11.29865433,-4.816533966,29.29414724,1.0,1.0
34.78907367,-28.8831871,-11.88887695,-2.447410583,31.33007678,1.0,1.0
34.79901467,-31.23913788,-11.81702637,0.1754351807,33.39994948,1.0,1.0
34.80895567,-33.16877518,-11.30733627,2.2746698,35.11691363,1.0,1.0
34.81889667,-33.78175049,-10.57850189,2.969075775,35.52360876,1.0,1.0
34.82883867,-32.21885056,-11.11408813,2.070195007,34.14473596,1.0,1.0
34.83877967,-29.05742477,-13.18607941,0.8020321655,31.91942794,1.0,1.0
34.84872067,-24.86883499,-15.39758057,0.4514611816,29.25317518,1.0,1.0
34.85866167,-20.53474777,-15.99214417,1.60541153,26.07684581,1.0,1.0
34.86860367,-16.78863785,-14.68670883,3.732488251,22.616128,1.0,1.0
34.87854467,-13.93572052,-12.81215698,5.926326141,19.83625505,1.0,1.0
34.88848567,-12.07359283,-11.21602615,7.557035065,18.12952469,1.0,1.0
34.89842667,-11.19896164,-10.09605515,8.69721405,17.40656783,1.0,1.0
34.90836867,-11.04253693,-9.556876373,9.120982819,17.2181252,1.0,1.0
34.91830967,-11.41481277,-9.674531708,8.55800354,17.23757347,1.0,1.0
34.92825067,-12.03542221,-10.33840118,7.309898987,17.4690741,1.0,1.0
34.93819167,-12.26294907,-10.86485641,5.679190063,17.34007568,1.0,1.0
34.94813267,-12.16175949,-10.94748459,3.886817322,16.81853625,1.0,1.0
34.95807467,-11.88633224,-11.03310654,2.366578674,16.38947921,1.0,1.0
34.96801567,-11.34116592,-11.11109436,0.9511221313,15.90544233,1.0,1.0
34.97795667,-10.85677322,-11.18743561,-0.263152771,15.59158394,1.0,1.0
34.98789867,-10.67041077,-11.2074939,-1.08000412,15.5123175,1.0,1.0
34.99783967,-10.57086777,-11.02322708,-1.443448334,15.34074065,1.0,1.0
155.001198,36.88674362,-3.814966736,11.41151962,38.79959544,1.0,2.0
155.01114,29.78940262,-3.135529633,7.583829346,30.89910228,1.0,2.0
155.021083,24.8222818,-2.748733978,4.827610931,25.43633306,1.0,2.0
155.031025,20.79834961,-2.865640869,2.433339844,21.13538234,1.0,2.0
155.040967,16.36172562,-3.130140839,0.2803669739,16.66080588,1.0,2.0
155.050909,11.83498901,-3.026705933,-1.623673553,12.32332056,1.0,2.0
155.060851,8.138426056,-2.661465454,-3.184477844,9.13555013,1.0,2.0
155.070794,5.514831848,-2.251917114,-4.374054108,7.390321396,1.0,2.0
155.080736,3.62261673,-1.70016449,-5.203628998,6.564424271,1.0,2.0
155.090678,2.149530029,-0.9648934937,-5.632038116,6.105026793,1.0,2.0
155.10062,1.067729645,-0.1273851013,-5.45959671,5.564482887,1.0,2.0
155.110562,0.1975891113,0.6926097107,-4.75995163,4.814134313,1.0,2.0
155.120505,-0.5945635986,1.562750244,-3.875141602,4.220475877,1.0,2.0
155.130447,-1.291514282,2.36478241,-2.910846863,3.966514143,1.0,2.0
155.140389,-1.778152313,2.824326782,-2.051783295,3.917711336,1.0,2.0
155.150331,-1.936822357,2.975213013,-1.272503815,3.771264943,1.0,2.0
155.160273,-2.002386017,3.065026245,-0.6147715759,3.712395417,1.0,2.0
155.170216,-1.963466949,3.16157547,-0.2652484131,3.731101531,1.0,2.0
155.180158,-1.909279633,3.231629791,-0.2151026917,3.759660755,1.0,2.0
155.1901,-1.833686829,3.21187088,-0.2818638611,3.709173651,1.0,2.0
155.200042,-1.771416321,3.121009827,-0.4203259277,3.613210761,1.0,2.0
155.209984,-1.734892273,2.922372894,-0.5174739075,3.437716361,1.0,2.0
155.219926,-1.610800323,2.666704559,-0.6944059753,3.191894508,1.0,2.0
155.229869,-1.341660004,2.30625412,-0.9532177734,2.833281446,1.0,2.0
155.239811,-0.9704319763,1.899998932,-1.123114471,2.411041326,1.0,2.0
155.249753,-0.6251000977,1.50122818,-1.049018555,1.935168238,1.0,2.0
155.259695,-0.4632865906,1.21337677,-0.8957373047,1.57773983,1.0,2.0
155.269637,-0.3206332397,0.9993218994,-0.7595205688,1.295500454,1.0,2.0
155.27958,-0.07619155884,0.8554710388,-0.6861730957,1.099304039,1.0,2.0
155.2895227,0.3243754578,0.8039781189,-0.8478369141,1.212611927,1.0,2.0
155.2994647,0.6246510315,0.845741272,-1.494492188,1.827285995,1.0,2.0
155.3094067,1.457519073,0.877325592,-2.151475983,2.742792546,1.0,2.0
155.3193487,2.564766541,0.2043251038,-2.499053192,3.586787283,1.0,2.0
155.3292917,3.471431122,-1.421593781,-2.132764893,4.315141828,1.0,2.0
155.3392337,4.910089417,-4.112996979,-0.6613247681,6.439182609,1.0,2.0
155.3491757,7.734116821,-7.208709412,1.71767807,10.71132449,1.0,2.0
155.3591177,12.11939758,-10.71471863,4.226011963,16.71957446,1.0,2.0
155.3690597,16.42414581,-14.43283676,6.592890015,22.83693371,1.0,2.0
155.3790027,20.62381256,-17.63378036,7.77168869,28.22571522,1.0,2.0
155.3889447,25.37792633,-19.41223206,6.688092041,32.64359774,1.0,2.0
155.3988867,30.86297012,-19.48168762,3.614832916,36.67596072,1.0,2.0
155.4088287,36.27107391,-18.28268097,0.8717871094,40.62766593,1.0,2.0
155.4187707,40.19561279,-16.14931732,-0.7110214233,43.3242806,1.0,2.0
155.4287127,41.55254105,-13.32768494,-0.5358856201,43.64089855,1.0,2.0
155.4386557,40.32239914,-10.62445633,1.194965057,41.71573907,1.0,2.0
155.4485977,36.90799942,-8.883127441,2.998414764,38.08018993,1.0,2.0
155.4585397,31.8386412,-8.179590454,3.450325012,33.05313172,1.0,2.0
155.4684817,26.02293503,-8.3170047,2.388582916,27.42391371,1.0,2.0
155.4784237,19.68691086,-8.674760742,0.4806504822,21.51875828,1.0,2.0
155.4883667,13.5391951,-8.625812531,-1.423689423,16.11649271,1.0,2.0
155.4983087,8.464747467,-8.013435974,-2.88659729,12.00831169,1.0,2.0
155.5082507,4.805906067,-7.011719055,-4.025878143,9.405776526,1.0,2.0
155.5181927,2.615511017,-5.586832123,-4.528682556,7.65261764,1.0,2.0
155.5281347,1.933080139,-3.923491058,-4.134103088,6.018420827,1.0,2.0
155.5380767,2.542313232,-2.314636688,-2.822081451,4.448038139,1.0,2.0
155.5480197,3.468886414,-0.8940907288,-1.291065216,3.80781047,1.0,2.0
155.5579617,3.931574249,0.5861810303,-0.123792572,3.976959753,1.0,2.0
155.5679037,3.790866852,1.827399902,0.6544390869,4.258914464,1.0,2.0
155.5778457,3.224145355,2.643951874,1.196012878,4.337746141,1.0,2.0
155.5877877,2.518812103,3.154689789,1.43222168,4.283426317,1.0,2.0
155.5977297,1.894909515,3.440894623,1.293759613,4.135728692,1.0,2.0
155.6076727,1.339414673,3.496429138,0.9794132996,3.870180719,1.0,2.0
155.6176147,0.8967851257,3.384461975,0.483943634,3.53454493,1.0,2.0
155.6275567,0.5929170227,3.205134888,-0.1181044006,3.261654319,1.0,2.0
155.6374987,0.37676651,3.113525391,-0.8605604553,3.252161998,1.0,2.0
155.6474407,-0.110919342,3.040626984,-1.631457367,3.452443873,1.0,2.0
155.6573837,-0.8391549683,2.752326508,-2.317031708,3.694335962,1.0,2.0
155.6673257,-1.244362335,2.323168945,-2.777324524,3.828718203,1.0,2.0
155.6772677,-1.045276337,1.938468933,-2.790796509,3.555110347,1.0,2.0
155.6872097,-0.5517526245,1.852098541,-2.377505951,3.063859415,1.0,2.0
155.6971517,-0.1975891113,2.034718781,-1.886077881,2.781440588,1.0,2.0
155.7070947,0.03008743286,2.180515594,-1.526375885,2.66183712,1.0,2.0
155.7170367,0.3243754578,2.225571899,-1.373244324,2.635183047,1.0,2.0
155.7269787,0.8693920898,2.056423645,-1.355730743,2.612034966,1.0,2.0
155.7369207,1.482966156,1.761387177,-1.376387787,2.682557874,1.0,2.0
155.7468627,2.046095123,1.291214905,-1.499880981,2.846644365,1.0,2.0
155.7568047,2.753524017,0.4059558105,-1.677711182,3.249832218,1.0,2.0
155.7667477,3.818708954,-0.7768844604,-1.917961578,4.343347114,1.0,2.0
155.7766897,5.097050629,-2.132465515,-1.93772049,5.855091372,1.0,2.0
155.7866317,6.438261566,-3.627406769,-1.49419281,7.539357003,1.0,2.0
155.7965737,8.118667145,-5.168901215,-0.9997709656,9.676251235,1.0,2.0
155.8065157,10.54572006,-6.690487061,-0.5002597046,12.4990035,1.0,2.0
155.8164587,12.80287628,-8.219108276,-0.06541397095,15.21419275,1.0,2.0
155.8264007,15.58573929,-9.503287811,0.1552272034,18.25518677,1.0,2.0
155.8363427,19.80501526,-10.74076447,0.2983296204,22.53201392,1.0,2.0
155.8462847,24.65702545,-12.32177673,0.8794212341,27.57840582,1.0,2.0
155.8562267,29.08661407,-13.67196899,1.586999817,32.17875732,1.0,2.0
155.8661687,32.25567398,-14.11055695,2.160157928,35.27325621,1.0,2.0
155.8761117,34.04116104,-13.79845596,2.546205139,36.81957621,1.0,2.0
155.8860537,34.61851044,-13.04252792,2.817141724,37.10101194,1.0,2.0
155.8959957,33.80914352,-12.29228806,2.54261261,36.06415686,1.0,2.0
155.9059377,31.27386566,-11.6665892,1.471739502,33.41152487,1.0,2.0
155.9158797,27.33690262,-11.00137253,-0.0477507019,29.46758766,1.0,2.0
155.9258227,22.900578,-10.06671616,-1.274000702,25.04792057,1.0,2.0
155.9357647,18.69118149,-9.155261536,-1.927541656,20.90202134,1.0,2.0
155.9457067,15.43575119,-8.42807373,-2.386038208,17.74790185,1.0,2.0
155.9556487,12.94358368,-7.446564789,-2.587369537,15.15526861,1.0,2.0
155.9655907,10.54437286,-6.293961639,-2.541864166,12.5402881,1.0,2.0
155.9755327,8.199499054,-5.394631805,-2.569406891,10.14572269,1.0,2.0
155.9854757,6.035598907,-4.781806183,-2.414778442,8.070023511,1.0,2.0
155.9954177,3.877536621,-4.314028931,-1.697919159,6.043927972,1.0,2.0
156.0053597,1.788480835,-3.704047394,-0.9445358276,4.22028183,1.0,2.0
156.0153017,0.1877096558,-3.022664337,-0.747096405,3.119276783,1.0,2.0
156.0252437,-0.5742059326,-2.602637787,-0.3417393494,2.68704702,1.0,2.0
156.0351867,-0.5554948425,-2.008074188,0.4023632813,2.121987907,1.0,2.0
156.0451287,-0.270637207,-0.9993218994,0.7247927856,1.263809059,1.0,2.0
156.0550707,-0.04206253052,0.2501298523,0.9081614685,0.942916461,1.0,2.0
156.0650127,0.4733157349,1.428479462,1.278641052,1.974716258,1.0,2.0
156.0749547,1.449435883,2.083217926,1.689686279,3.048885211,1.0,2.0
156.0848967,2.132615204,2.16928894,2.039658508,3.662522211,1.0,2.0
156.0948397,2.295027466,2.128723297,2.177222443,3.812992461,1.0,2.0
156.1047817,1.611698456,2.104174347,1.849404144,3.231937079,1.0,2.0
156.1147237,0.4730163574,2.026485901,1.328487396,2.468859725,1.0,2.0
156.1246657,0.1820214844,1.664837952,0.1999841309,1.686656716,1.0,2.0
156.1346077,0.2897973633,1.16188385,-0.698896637,1.386511126,1.0,2.0
156.1445497,0.4346960449,1.195414124,-1.152453461,1.716427848,1.0,2.0
156.1544927,0.2685415649,1.275048523,-0.9380992126,1.605581963,1.0,2.0
156.1644347,0.4647834778,0.9262738037,0.07110214233,1.038779262,1.0,2.0
156.1743767,0.996328125,0.7167095947,0.9059161377,1.525459414,1.0,2.0
156.1843187,1.53745285,0.3875440979,0.6234535217,1.703715348,1.0,2.0
156.1942607,2.510130157,0.4939727783,-0.7258406067,2.659249349,1.0,2.0
156.2042037,3.89055954,0.9434880066,1.357826385,4.227329612,1.0,2.0
156.2141457,3.015179901,0.6420149231,2.891836395,4.226844063,1.0,2.0
156.2240877,3.500021667,-0.6804849243,2.038910065,4.107355068,1.0,2.0
156.2340297,5.331313477,-1.976190491,1.781295776,5.958292279,1.0,2.0
156.2439717,6.727460175,-2.710413666,2.084116058,7.546429777,1.0,2.0
156.2539137,7.026687927,-3.510799255,3.002156982,8.409102282,1.0,2.0
156.2638567,7.369325409,-4.751569061,3.720962219,9.525225738,1.0,2.0
156.2737987,7.595505066,-5.739664307,3.068618774,10.0025929,1.0,2.0
156.2837406,9.477541351,-7.357949066,5.89249649,13.36730038,1.0,2.0
156.2936826,8.828790436,-6.909182281,3.561992798,11.7631685,1.0,2.0
156.3036246,11.42708725,-3.188669128,3.707340546,12.42941301,1.0,2.0
156.3135676,13.80698822,-0.9723779297,4.267475739,14.48412206,1.0,2.0
156.3235096,27.58299088,0.5113366699,2.36478241,27.68889753,1.0,2.0
156.3334516,30.14087173,-1.832489319,5.587879944,30.70919355,1.0,2.0
156.3433936,21.28169449,-5.52516037,8.150401154,23.44924213,1.0,2.0
156.3533356,20.58160034,-9.590406647,12.31099915,25.82903158,1.0,2.0
156.3632776,15.70429276,-12.69854324,16.27999557,25.94062581,1.0,2.0
156.3732206,12.32866241,-16.51306091,15.17469406,25.59196041,1.0,2.0
156.3831626,9.644294586,-17.2577623,16.22775421,25.57699717,1.0,2.0
156.3931046,11.27874573,-16.09138779,22.51587799,29.88490635,1.0,2.0
156.4030466,11.4675032,-13.93033173,26.8447261,32.34497011,1.0,2.0
156.4129886,15.81745743,-9.018446045,22.27562759,28.77026092,1.0,2.0
156.4229306,13.45626755,-0.4933740234,7.94023819,15.63208037,1.0,2.0
156.4328736,9.218430176,1.62053009,1.199755096,9.43636503,1.0,2.0
156.4428156,4.289929047,0.7204518127,-0.637224884,4.396430096,1.0,2.0
156.4527576,2.508483582,0.1562750244,-2.3635849,3.450137003,1.0,2.0
156.4626996,2.922522583,0.87522995,-2.907553711,4.214384213,1.0,2.0
156.4726416,4.548591156,1.569486237,-2.227517853,5.302339515,1.0,2.0
156.4825846,6.124514008,1.321152649,-0.3966751099,6.277934955,1.0,2.0
156.4925266,6.682703247,0.9613009644,1.543440399,6.925664625,1.0,2.0
156.5024686,6.253845062,1.439406738,2.807711334,7.004692196,1.0,2.0
156.5124106,4.850962372,2.51566864,3.435805206,6.454857245,1.0,2.0
156.5223526,2.874771881,3.221600647,3.658242645,5.659130971,1.0,2.0
156.5322946,1.192120972,3.274889832,4.231999512,5.482323931,1.0,2.0
156.5422366,0.4364923096,3.998036041,4.104913788,5.746749945,1.0,2.0
156.5521796,0.2933898926,4.506378937,3.648512878,5.805615814,1.0,2.0
156.5621216,0.07708969116,4.461322632,3.446433105,5.638017701,1.0,2.0
156.5720636,-0.093256073,4.292623444,2.768043823,5.108559418,1.0,2.0
156.5820056,-0.4749623108,3.629502411,2.971620483,4.714807021,1.0,2.0
156.5919476,-0.6792874146,3.233875122,3.215463409,4.610703269,1.0,2.0
156.6018906,-1.186881866,3.212319946,2.953957214,4.522560251,1.0,2.0
156.6118326,-2.317181396,3.275787964,1.686842194,4.352648963,1.0,2.0
156.6217746,-2.443368988,3.10304718,0.9002279663,4.050847344,1.0,2.0
156.6317166,-2.202669525,2.701132965,1.964514771,4.000898726,1.0,2.0
156.6416586,-0.9919871521,1.696272583,4.298610992,4.726461219,1.0,2.0
156.6516006,1.547931061,0.1960922241,7.116201782,7.285250204,1.0,2.0
156.6615436,2.019899597,-1.71184021,9.815388794,10.16623079,1.0,2.0
156.6714856,1.576671295,-3.32533493,9.845625916,10.51095117,1.0,2.0
156.6814276,1.922901306,-3.953279114,9.167236633,10.16681822,1.0,2.0
156.6913696,3.161276093,-4.437971191,9.82751358,11.23696035,1.0,2.0
156.7013116,4.623884583,-5.509293365,11.14207993,13.2619217,1.0,2.0
156.7112546,5.681734772,-7.19838089,13.08174637,15.97594709,1.0,2.0
156.7211966,7.287894745,-9.792336731,15.78647186,19.95534922,1.0,2.0
156.7311386,9.441017303,-12.64705032,18.35093903,24.20408339,1.0,2.0
156.7410806,11.27335693,-14.99252289,20.0765506,27.47602961,1.0,2.0
156.7510226,12.58073822,-17.45400421,20.93426697,30.01933994,1.0,2.0
156.7609646,13.34504883,-19.80860779,20.82289856,31.68697485,1.0,2.0
156.7709066,13.90398651,-21.32390671,19.36972046,31.98774623,1.0,2.0
156.7808496,14.14333878,-21.63915115,16.74747345,30.80202528,1.0,2.0
156.7907916,13.68678818,-21.09413452,13.86551651,28.71486079,1.0,2.0
156.8007336,12.73686356,-19.87521927,11.39909546,26.21433599,1.0,2.0
156.8106756,11.67317551,-18.15125427,9.592053223,23.6164888,1.0,2.0
156.8206176,10.70768326,-16.5835643,8.753347321,21.59375315,1.0,2.0
156.8305596,10.30666718,-15.25896881,8.431815948,20.2523835,1.0,2.0
156.8405026,9.802814941,-13.7396283,8.006550293,18.68093718,1.0,2.0
156.8504446,9.237889709,-12.38943604,7.706274719,17.26914594,1.0,2.0
156.8603866,8.74870697,-11.30314499,7.376809845,16.08472206,1.0,2.0
156.8703286,8.153993683,-10.17389328,6.69407959,14.65627576,1.0,2.0
156.8802706,7.313192139,-8.867110748,5.531596985,12.75566531,1.0,2.0
156.8902126,6.339916077,-7.444020081,3.828887787,10.50087389,1.0,2.0
156.9001556,5.393434296,-6.065836029,1.822609863,8.31897872,1.0,2.0
156.9100976,4.775968323,-4.636009369,-0.06406677246,6.656317363,1.0,2.0
156.9200396,4.611460419,-3.278931427,-1.390608215,5.826727186,1.0,2.0
156.9299816,5.449268188,-2.173629913,-1.916464691,6.171873921,1.0,2.0
156.9399236,6.224206696,-1.091081085,-2.067051544,6.648602034,1.0,2.0
156.9498666,6.164331207,-0.1013392639,-2.064656525,6.501696351,1.0,2.0
156.9598086,5.92887085,0.6942562866,-1.861079865,6.252768955,1.0,2.0
156.9697506,5.513784027,1.319955139,-1.863774261,5.968060855,1.0,2.0
156.9796926,4.903652802,1.791624298,-2.159110107,5.649556167,1.0,2.0
156.9896346,4.460873566,1.844464417,-2.380799103,5.382345801,1.0,2.0
156.9995766,4.132905579,1.535955963,-2.403102722,5.021451178,1.0,2.0
157.0095196,3.833677826,1.065783691,-2.306703186,4.599332575,1.0,2.0
157.0194616,3.705544281,0.6942562866,-2.244133301,4.387389256,1.0,2.0
157.0294036,3.745810547,0.422870636,-2.203118591,4.366193738,1.0,2.0
157.0393456,4.124223633,0.2561174011,-2.086062012,4.628873666,1.0,2.0
157.0492876,4.884642334,-0.2276765442,-1.612147522,5.148843265,1.0,2.0
157.0592296,5.40346344,-0.3260220337,-0.8303233337,5.476599707,1.0,2.0
157.0691726,6.089486847,-0.05179229736,-0.2191442871,6.093648884,1.0,2.0
157.0791146,6.244414673,0.3674858093,0.3335064697,6.264103048,1.0,2.0
157.0890566,6.25174942,0.6382727051,0.7822732544,6.332749348,1.0,2.0
157.0989986,6.116580505,1.196911011,1.261127472,6.358898926,1.0,2.0
157.1089406,5.966143341,1.897454224,2.016606445,6.577377931,1.0,2.0
157.1188826,5.453609161,2.19623291,3.335663452,6.759581536,1.0,2.0
157.1288256,4.602329407,1.785037994,5.432203674,7.340070393,1.0,2.0
157.1387676,3.897894287,0.572409668,8.012537842,8.928717454,1.0,2.0
157.1487096,3.546724548,-1.282832336,10.44976959,11.10957238,1.0,2.0
157.1586516,3.566184082,-3.475323029,12.46173569,13.41977628,1.0,2.0
157.1685936,3.797602844,-5.920787659,14.22686508,15.8707657,1.0,2.0
157.1785356,4.545447693,-8.848249969,15.99678452,18.8374557,1.0,2.0
157.1884786,6.203399963,-11.66614014,17.41388763,21.85919668,1.0,2.0
157.1984206,9.055568848,-13.82016083,18.95268768,25.14367799,1.0,2.0
157.2083626,12.5186174,-15.57406357,20.36874298,28.53336518,1.0,2.0
157.2183046,15.07574982,-16.55781784,20.35542068,30.26190205,1.0,2.0
157.2282466,15.92732895,-16.57652893,18.91331955,29.76868783,1.0,2.0
157.2381886,15.19580017,-16.42878616,17.39068588,28.34172389,1.0,2.0
157.2481316,13.65909576,-16.79252975,16.44719788,27.18584688,1.0,2.0
157.2580736,12.32926117,-17.46972153,16.27236145,26.86990135,1.0,2.0
157.2680156,11.7595459,-17.84319489,16.24826157,26.84534461,1.0,2.0
157.2779576,11.74173294,-17.16360809,15.71596848,26.06625022,1.0,2.0
157.2878996,11.64398621,-15.5337973,14.77622269,24.39709061,1.0,2.0
157.2978416,11.00930603,-13.84456009,13.55820557,22.2868033,1.0,2.0
157.3077846,9.823771362,-11.97734299,12.41323654,19.85073475,1.0,2.0
157.3177266,8.211324463,-9.95280304,11.33667526,17.17569049,1.0,2.0
157.3276686,5.719156952,-8.092172241,9.905800781,14.01131318,1.0,2.0
157.3376106,2.602787476,-6.930587769,8.287216644,11.11240339,1.0,2.0
157.3475526,-0.2724334717,-6.421945496,6.804549866,9.36042215,1.0,2.0
157.3574946,-2.590662689,-6.132297821,5.266198883,8.488195357,1.0,2.0
157.3674376,-4.140539703,-5.485492859,3.369493103,7.654291914,1.0,2.0
157.3773796,-4.735402679,-4.29307251,1.503772888,6.56626553,1.0,2.0
157.3873216,-4.983885956,-3.325185242,0.739611969,6.036803954,1.0,2.0
157.3972636,-5.006039886,-2.733615417,1.611099701,5.926949539,1.0,2.0
157.4072056,-4.764292603,-2.233355713,2.833308105,5.976118855,1.0,2.0
157.4171476,-4.934937744,-2.697390747,3.027154999,6.386955047,1.0,2.0
157.4270906,-4.972509613,-1.927691345,3.01293457,6.125326155,1.0,2.0
157.4370326,-5.209915924,-1.391356659,3.148402863,6.244320449,1.0,2.0
157.4469746,-5.334756317,-0.8300239563,3.232228546,6.292524621,1.0,2.0
157.4569166,-5.471871185,0.01676513672,3.09960434,6.28881566,1.0,2.0
157.4668586,-5.298381958,0.1898052979,2.528242493,5.873745613,1.0,2.0
157.4768006,-4.530029755,-0.1206491089,1.736089783,4.852806767,1.0,2.0
157.4867426,-3.696712646,-0.07379653931,1.063089294,3.84724436,1.0,2.0
157.4966856,-3.198249207,0.1812730408,0.4170327759,3.230413942,1.0,2.0
157.5066276,-2.731370087,0.1122665405,0.07604187012,2.734733752,1.0,2.0
157.5165696,-2.049238586,-0.09250762939,0.3549119568,2.08180185,1.0,2.0
157.5265116,-1.261576538,-0.06167175293,0.8449928284,1.519668269,1.0,2.0
157.5364536,-0.2392025757,-0.03667373657,1.193917236,1.21819588,1.0,2.0
157.5463956,0.6876699829,0.1456471252,1.397942963,1.564719661,1.0,2.0
157.5563386,1.427132263,0.4162843323,1.592238922,2.17835349,1.0,2.0
157.5662806,2.047442322,0.3353027344,1.917362823,2.825018262,1.0,2.0
157.5762226,2.688559113,-0.3359014893,2.271975403,3.535965518,1.0,2.0
157.5861646,2.893782349,-1.209185486,2.622845764,4.088450284,1.0,2.0
157.5961066,2.514620819,-1.835932159,3.119662628,4.407523077,1.0,2.0
157.6060486,2.122735748,-2.683170319,3.972139893,5.242452226,1.0,2.0
157.6159916,2.171534271,-4.548890533,5.495522003,7.457126006,1.0,2.0
157.6259336,2.736010437,-7.548053741,7.811655579,11.20182268,1.0,2.0
157.6358756,3.97707962,-11.70520889,11.36466705,16.7924011,1.0,2.0
157.6458176,6.035598907,-16.84387299,15.40326874,23.6094303,1.0,2.0
157.6557596,8.819809113,-20.62351318,17.80397644,28.63738651,1.0,2.0
157.6657016,11.57168655,-20.82259918,17.80203049,29.7388106,1.0,2.0
157.6756446,13.63933685,-19.39486816,17.42167145,29.42290021,1.0,2.0
157.6855866,15.13427811,-18.36935074,18.25004883,29.99239408,1.0,2.0
157.6955286,15.9080191,-17.85142776,19.74154724,31.00753509,1.0,2.0
157.7054706,16.42354706,-17.43050308,21.74498108,32.34809945,1.0,2.0
157.7154126,16.70750656,-16.95494202,23.64707565,33.55286905,1.0,2.0
157.7253546,16.43028305,-16.11039825,24.61945358,33.69891137,1.0,2.0
157.7352976,15.30207916,-14.69194794,23.52223526,31.67495087,1.0,2.0
157.7452396,13.787379,-12.92786636,21.56370804,28.67429254,1.0,2.0
157.7551816,11.80954193,-11.19566849,19.8071109,25.63454536,1.0,2.0
157.7651236,8.834777985,-9.436975708,17.73467056,21.94603273,1.0,2.0
157.7750656,5.223836975,-7.49326767,15.55026306,18.03463929,1.0,2.0
157.7850076,2.128723297,-5.685027924,13.55131989,14.8488813,1.0,2.0
157.7949496,-0.1972897339,-4.17017807,11.5923436,12.32119063,1.0,2.0
157.8048926,-1.891766052,-2.908302155,9.593999176,10.20204981,1.0,2.0
157.8148346,-2.755020905,-1.370549927,7.382198639,7.99783746,1.0,2.0
157.8247766,-2.850971375,0.3559597778,5.146148529,5.89386035,1.0,2.0
157.8347186,-2.612966309,1.692979431,3.309318237,4.543716483,1.0,2.0
157.8446606,-2.147584076,2.337239685,2.017504578,3.761001387,1.0,2.0
157.8546026,-1.763183441,2.358196106,1.208287354,3.182744578,1.0,2.0
157.8645456,-1.526675262,2.130220184,0.7515870667,2.726436962,1.0,2.0
157.8744876,-1.220262451,1.897753601,0.4296066284,2.29675228,1.0,2.0
157.8844296,-0.9617500305,1.65914978,0.08083190918,1.919446512,1.0,2.0
157.8943716,-0.7940986633,1.637295227,-0.4227209473,1.868159883,1.0,2.0
157.9043136,-0.7575746155,1.776356049,-1.023721161,2.185718446,1.0,2.0
157.9142556,-0.8655001831,1.622326355,-1.57023468,2.4179889,1.0,2.0
157.9241986,-1.072519684,1.075064392,-1.709894257,2.286875661,1.0,2.0
157.9341406,-1.27190506,0.2981799316,-1.510508881,1.997070562,1.0,2.0
157.9440826,-1.555864563,-0.4501139832,-1.294208679,2.073232558,1.0,2.0
157.9540246,-1.753753052,-1.130000153,-1.267264709,2.441005931,1.0,2.0
157.9639666,-1.673669586,-1.526675262,-1.634900208,2.793708276,1.0,2.0
157.9739086,-1.527423706,-1.611548767,-2.461181946,3.31474421,1.0,2.0
157.9838506,-1.183139648,-1.178798676,-3.342848511,3.73684652,1.0,2.0
157.9937936,-0.9108558655,-0.7282356262,-3.628604279,3.811397978,1.0,2.0
158.0037356,-0.4034111023,-0.5692662048,-3.18732193,3.262794142,1.0,2.0
158.0136776,0.2856060791,-0.6126759338,-2.411335602,2.504292718,1.0,2.0
158.0236196,0.56866745,-0.9425898743,-1.796564026,2.107012254,1.0,2.0
158.0335616,0.6710545349,-1.2753479,-1.252744904,1.909501571,1.0,2.0
158.0435036,0.900377655,-1.296903076,-0.7632627869,1.753626982,1.0,2.0
158.0534466,1.423839111,-1.137484589,-0.1079255676,1.825605908,1.0,2.0
158.0633886,1.992207184,-1.245559845,0.9026229858,2.516949949,1.0,2.0
158.0733306,2.681523743,-1.731449432,2.342927856,3.959519877,1.0,2.0
158.0832726,3.529510345,-2.819985809,4.637805634,6.474488732,1.0,2.0
158.0932146,3.79580658,-4.574487305,7.06620575,9.233923618,1.0,2.0
158.1031566,3.416794739,-7.182962952,9.132808228,12.11105401,1.0,2.0
158.1130996,3.040776672,-10.73477692,11.4104718,15.95871627,1.0,2.0
158.1230416,3.461252289,-14.2000708,14.22027878,20.39212119,1.0,2.0
158.1329836,5.102589111,-16.2213176,16.99535797,24.04183339,1.0,2.0
158.1429256,7.500602417,-17.7089241,19.70187973,27.53232817,1.0,2.0
158.1528676,10.10698242,-19.34801559,22.76376251,31.53863797,1.0,2.0
158.1628096,12.52879623,-20.06427612,25.8971965,35.07435955,1.0,2.0
158.1727516,14.6102179,-19.33289703,29.5322374,38.20173321,1.0,2.0
158.1826946,15.6373819,-17.38604553,32.82149734,40.29954069,1.0,2.0
158.1926366,15.1835257,-14.72637634,35.05111084,40.9388078,1.0,2.0
158.2025786,13.44069992,-12.23510696,36.78675156,41.03188208,1.0,2.0
158.2125206,10.68163742,-10.20383102,36.8166893,39.66968813,1.0,2.0
158.2224626,6.856641541,-8.383765869,34.31853424,35.98698175,1.0,2.0
158.2324046,2.884202271,-7.105124817,30.16467224,31.12408831,1.0,2.0
158.2423476,0.4951702881,-6.596183167,25.42926956,26.27551287,1.0,2.0
158.2522896,0.1752854919,-6.118227081,20.7267984,21.61165425,1.0,2.0
158.2622316,1.128353577,-5.538482666,16.67472473,17.60665831,1.0,2.0
158.2721736,2.59410553,-4.892276459,13.36286179,14.46477886,1.0,2.0
158.2821156,4.225113831,-3.932472382,10.75827805,12.2088686,1.0,2.0
158.2920576,5.673052826,-2.777324524,8.794212341,10.8275219,1.0,2.0
158.3019996,6.509663086,-1.833836517,7.379504242,10.00978285,1.0,2.0
158.3119426,6.600823517,-1.26951004,6.349945221,9.246855203,1.0,2.0
158.3218846,6.003266144,-1.169368286,5.413492584,8.167773781,1.0,2.0
158.3318266,5.434598694,-1.254990234,5.105732574,7.561637956,1.0,2.0
158.3417686,5.184468842,-1.046623535,5.861361237,7.894915676,1.0,2.0
158.3517106,4.68615509,-0.7729925537,6.514004059,8.061626132,1.0,2.0
158.3616526,3.782484283,-0.7737409973,6.699019318,7.731928757,1.0,2.0
158.3715956,3.011587372,-1.027164001,6.345604248,7.098691264,1.0,2.0
158.3815376,2.100881195,-1.302441559,5.359604645,5.902153654,1.0,2.0
158.3914796,1.171912994,-1.629062347,4.795727234,5.198675206,1.0,2.0
158.4014216,0.3215313721,-1.951042786,4.731211395,5.127797933,1.0,2.0
158.4113636,-0.4677772522,-2.227368164,4.772525482,5.287436427,1.0,2.0
158.4213056,-0.9877958679,-2.57539444,4.678670654,5.431238928,1.0,2.0
158.4312476,-1.30693222,-2.861599274,4.446503448,5.446853693,1.0,2.0
158.4411906,-1.479972382,-2.939736786,4.121828613,5.274641385,1.0,2.0
158.4511326,-1.485510864,-2.742297363,3.570225677,4.740616916,1.0,2.0
158.4610746,-1.27654541,-2.430046692,2.848726044,3.955999896,1.0,2.0
158.4710166,-0.9318122864,-2.220931549,2.395019531,3.396605605,1.0,2.0
158.4809586,-0.4203259277,-2.017055511,2.309846649,3.095250937,1.0,2.0
158.4909006,0.255668335,-1.980381775,2.534828796,3.226861525,1.0,2.0
158.5008436,0.9533674622,-2.163301392,3.021017761,3.836056666,1.0,2.0
158.5107856,1.694626007,-2.306852875,3.644920349,4.634519591,1.0,2.0
158.5207276,2.298769684,-2.205513611,4.804708557,5.764881323,1.0,2.0
158.5306696,2.75786499,-1.940863953,5.978866882,6.864373342,1.0,2.0
158.5406116,2.566113739,-1.819017334,6.694828033,7.396924103,1.0,2.0
158.5505536,2.230811005,-1.784588928,7.607629852,8.126334189,1.0,2.0
158.5604956,2.092648315,-1.017583923,8.504864044,8.817446707,1.0,2.0
158.5704386,2.079475708,1.276096344,9.141490173,9.461473653,1.0,2.0
158.5803806,1.155147858,5.189857635,9.551786957,10.93186274,1.0,2.0
158.5903226,0.1486408997,9.937385101,8.764873352,13.25129132,1.0,2.0
158.6002646,-0.02664459229,14.10037811,6.008804626,15.32733199,1.0,2.0
158.6102066,1.049018555,16.60646667,2.593506775,16.84047068,1.0,2.0
158.6201486,4.074377289,17.78227158,0.3613485718,18.2466519,1.0,2.0
158.6300916,8.011789398,18.26322144,0.3523672485,19.94638286,1.0,2.0
158.6400336,11.41017242,17.76745239,2.483485565,21.26128171,1.0,2.0
158.6499756,13.42647949,16.42130173,5.371280365,21.88104556,1.0,2.0
158.6599176,13.74007736,14.94626907,7.121291199,21.5149593,1.0,2.0
158.6698596,12.50394791,13.56344467,7.637567596,19.96617598,1.0,2.0
158.6798016,10.16251694,12.25082428,7.440726929,17.57053964,1.0,2.0
158.6897436,7.368576965,10.82967957,6.538553009,14.64003284,1.0,2.0
158.6996866,4.883444824,9.505682831,5.347629547,11.9500285,1.0,2.0
158.7096286,3.081641693,8.580157471,4.36911438,10.10963789,1.0,2.0
158.7195706,1.837279358,7.980953522,3.749103699,9.007052409,1.0,2.0
158.7295126,0.9734257507,7.325017548,3.533102875,8.190619982,1.0,2.0
158.7394546,0.6542893982,6.090983734,3.460204468,7.035708381,1.0,2.0
158.7493966,0.4709207153,4.573589172,3.432661743,5.73782632,1.0,2.0
158.7593386,0.4911286926,3.952380981,3.703149261,5.438367151,1.0,2.0
158.7692816,0.3317102051,3.610192566,4.071832581,5.451911829,1.0,2.0
158.7792236,0.2796185303,3.396437073,3.83322876,5.129094855,1.0,2.0
158.7891656,0.2038760376,2.788850555,3.182831268,4.236704821,1.0,2.0
158.7991076,0.6268963623,2.648592224,2.657573547,3.804042189,1.0,2.0
158.8090496,0.9201365662,2.819985809,2.370320892,3.79702415,1.0,2.0
158.8189916,1.214723969,2.594704285,2.091301117,3.547053003,1.0,2.0
158.8289346,1.275796967,2.078727264,1.923350372,3.106129681,1.0,2.0
158.8388766,0.97701828,1.548978882,1.778002625,2.552487733,1.0,2.0
158.8488186,0.5447172546,1.052611084,1.593286743,1.985766761,1.0,2.0
158.8587606,0.2633024597,0.5782475281,1.453776855,1.586557763,1.0,2.0
158.8687026,-0.03966751099,0.2903961182,1.442101135,1.471583875,1.0,2.0
158.8786446,-0.4834945679,0.1353186035,1.274300079,1.369641856,1.0,2.0
158.8885866,-1.10335556,0.02050735474,0.8536747742,1.395196998,1.0,2.0
158.8985296,-1.895657959,-0.01466949463,0.4468208313,1.947660942,1.0,2.0
158.9084716,-2.646047516,0.1106199646,0.3098556519,2.666423589,1.0,2.0
158.9184136,-2.992427216,0.4831951904,0.2213896179,3.039261686,1.0,2.0
158.9283556,-3.032693481,0.9837542725,0.1110690308,3.190194124,1.0,2.0
158.9382976,-2.208357697,1.45093277,0.4499642944,2.680395024,1.0,2.0
158.9482396,-0.8840615845,1.993554382,1.453926544,2.621016283,1.0,2.0
158.9581816,-0.5219645691,3.192561035,2.617007904,4.160964233,1.0,2.0
158.9681246,-1.12910202,5.17758316,3.758534088,6.496831324,1.0,2.0
158.9780666,-1.860780487,7.203320618,4.527485046,8.709101721,1.0,2.0
158.9880086,-2.423460388,8.862919464,4.712649994,10.32635326,1.0,2.0
158.9979506,-2.636317749,10.28391449,4.672084351,11.59902757,1.0,2.0
159.0078926,-2.87252655,11.71853119,4.678520966,12.94078593,1.0,2.0
159.0178346,-3.713926849,12.78132111,4.334835663,13.99807923,1.0,2.0
159.0277766,-5.228327637,13.74037674,3.182531891,15.04200359,1.0,2.0
159.0377196,-6.807843018,14.84702545,0.1360670471,16.33399539,1.0,2.0
159.0476616,-8.10519516,16.78115341,-3.614832916,18.98336944,1.0,2.0
159.0576036,-7.926616516,18.67291946,-6.715335388,21.36831533,1.0,2.0
159.0675456,-6.910080414,19.06181076,-8.468040619,21.97292772,1.0,2.0
159.0774876,-6.232140198,19.39786194,-9.10556488,22.31653941,1.0,2.0
159.0874296,-5.588179321,21.42300064,-8.864416351,23.84849223,1.0,2.0
159.0973726,-4.219725037,23.42194382,-6.769223328,24.74299731,1.0,2.0
159.1073146,-3.059487762,23.73090134,-3.873195648,24.23876623,1.0,2.0
159.1172566,-2.129771118,22.50704636,-1.4239888,22.65239071,1.0,2.0
159.1271986,-1.168320465,20.46244812,-1.019380188,20.52110844,1.0,2.0
159.1371406,-0.2580633545,18.62382156,-2.431992645,18.78371408,1.0,2.0
159.1470826,0.5519023132,17.18456451,-3.861220551,17.62165934,1.0,2.0
159.1570246,1.017883301,15.57166855,-4.622687073,16.27520149,1.0,2.0
159.1669676,1.454674988,13.9000946,-4.821024628,14.7841465,1.0,2.0
159.1769096,1.942809906,12.54825577,-4.273463287,13.39760134,1.0,2.0
159.1868516,2.342927856,11.96581696,-2.557431793,12.45835237,1.0,2.0
159.1967936,2.571951599,11.68051025,-0.333356781,11.96496475,1.0,2.0
159.2067356,2.593207397,10.55515045,1.68489624,10.99885453,1.0,2.0
159.2166776,2.068548431,9.229058075,3.360811157,10.03740291,1.0,2.0
159.2266196,1.322050781,7.669451294,4.362827454,8.922026945,1.0,2.0
159.2365626,0.4326004028,6.057453461,4.623435516,7.632564544,1.0,2.0
159.2465046,-0.7869136047,4.558171234,4.328399048,6.334918811,1.0,2.0
159.2564466,-2.151176605,3.290457458,3.461551666,5.238035033,1.0,2.0
159.2663886,-3.674409027,2.1857547,2.11899353,4.771680929,1.0,2.0
159.2763306,-4.942122803,1.100212097,0.7255412292,5.114826931,1.0,2.0
159.2862727,-5.630990295,-0.1252894592,-0.1978884888,5.635859208,1.0,2.0
159.2962147,-5.607489166,-1.484163666,-0.5700146484,5.828515526,1.0,2.0
159.3061577,-4.884642334,-2.763403473,-0.6794371033,5.65311987,1.0,2.0
159.3160997,-3.865860901,-3.643573151,-0.8631051636,5.381956552,1.0,2.0
159.3260417,-2.748135223,-3.708238678,-1.148860931,4.756381265,1.0,2.0
159.3359837,-1.483564911,-3.079396362,-1.537153473,3.747864405,1.0,2.0
159.3459257,-0.3456312561,-2.350561981,-1.991159363,3.09989003,1.0,2.0
159.3558677,0.7271878052,-1.907034302,-2.193239136,2.995977276,1.0,2.0
159.3658097,1.654958496,-1.759141846,-2.151026917,3.234251761,1.0,2.0
159.3757527,2.65607666,-1.629062347,-1.964514771,3.68346381,1.0,2.0
159.3856947,3.716471558,-1.124162292,-1.635199585,4.213048704,1.0,2.0
159.3956367,3.945046234,-0.2728825378,-1.215322723,4.137011481,1.0,2.0
159.4055787,3.674708405,0.423918457,-1.049766998,3.845152724,1.0,2.0
159.4155207,2.784060516,1.235231323,-0.7831713867,3.144860379,1.0,2.0
159.4254627,1.242416382,2.543361053,-0.5369334412,2.881072966,1.0,2.0
159.4354047,-0.1775308228,4.132306824,-0.7536827087,4.204225791,1.0,2.0
159.4453477,-1.678908691,5.731281738,-1.444196777,6.144267986,1.0,2.0
159.4552897,-4.13739624,7.075785828,-1.91077652,8.416404199,1.0,2.0
159.4652317,-7.100185089,7.977061615,-2.238894196,10.9114063,1.0,2.0
159.4751737,-9.728269958,8.405470734,-3.491040344,13.32210709,1.0,2.0
159.4851157,-11.48396896,9.432634735,-6.431375885,16.19316945,1.0,2.0
159.4950577,-11.40014328,12.21549774,-9.940827942,19.44226612,1.0,2.0
159.5050007,-8.643625488,16.38672363,-12.400513,22.29371426,1.0,2.0
159.5149427,-5.030139771,21.30025589,-12.00593353,24.96288539,1.0,2.0
159.5248847,-2.255060577,24.4718605,-9.184450836,26.23568928,1.0,2.0
159.5348267,-1.290466461,25.56967758,-5.974376221,26.290053,1.0,2.0
159.5447687,-1.274898834,26.30973862,-3.582949219,26.58317585,1.0,2.0
159.5547107,-1.589694214,27.3119046,-2.559078369,27.47755707,1.0,2.0
159.5646527,-2.194586334,27.56712387,-2.684667206,27.78434749,1.0,2.0
159.5745947,-2.65487915,26.67632629,-3.737727356,27.06742274,1.0,2.0
159.5845377,-2.992427216,25.24889465,-5.338348846,25.97997826,1.0,2.0
159.5944797,-3.277584229,23.81607422,-6.783144379,24.97917127,1.0,2.0
159.6044217,-3.781286774,22.28445923,-7.554640045,23.83207584,1.0,2.0
159.6143637,-4.19831955,20.5503154,-7.42186615,22.24916734,1.0,2.0
159.6243057,-4.294719086,18.90957733,-6.179150391,20.35187034,1.0,2.0
159.6342477,-4.116290131,17.80367706,-4.05087616,18.71695379,1.0,2.0
159.6441907,-3.577560425,16.83953201,-1.779349823,17.30707551,1.0,2.0
159.6541327,-2.750230865,15.04102203,-0.1628613281,15.29126017,1.0,2.0
159.6640747,-1.892963562,12.67264709,0.5740562439,12.8260998,1.0,2.0
159.6740167,-1.000519409,10.30831375,0.5914201355,10.37362758,1.0,2.0
159.6839587,-0.1309776306,8.117918701,0.2845582581,8.1239604,1.0,2.0
159.6939007,0.4409829712,6.206992493,-0.01616638184,6.222658848,1.0,2.0
159.7038427,0.82373703,4.483925629,-0.1901046753,4.562923572,1.0,2.0
159.7137857,1.015188904,2.816692657,-0.2600093079,3.005323756,1.0,2.0
159.7237277,0.9610015869,1.282682648,-0.2339634705,1.619733846,1.0,2.0
159.7336697,0.7797285461,-0.1146615601,-0.1191522217,0.7970703425,1.0,2.0
159.7436117,0.5471122742,-1.366358643,0.01541793823,1.471905396,1.0,2.0
159.7535537,0.2812651062,-2.428998871,0.08217910767,2.446609691,1.0,2.0
159.7634957,0.06077362061,-3.220702515,0.06197113037,3.2218719,1.0,2.0
159.7734377,-0.09744735718,-3.742667084,-0.05463638306,3.744334123,1.0,2.0
159.7833797,-0.1187031555,-4.004472656,-0.2679428101,4.015181819,1.0,2.0
159.7933227,-0.02409988403,-3.951033783,-0.4805007935,3.980217302,1.0,2.0
159.8032647,-0.001197509766,-3.643124084,-0.6451583862,3.699808626,1.0,2.0
159.8132067,0.02948867798,-3.214714966,-0.7162605286,3.293674398,1.0,2.0
159.8231487,0.1314266968,-2.804567871,-0.6023474121,2.871532052,1.0,2.0
159.8330907,0.2291734314,-2.336191864,-0.3035687256,2.366953075,1.0,2.0
159.8430327,0.2624043274,-1.886526947,0.0347277832,1.905005504,1.0,2.0
159.8529747,0.1389111328,-1.509610748,0.2439926147,1.53549774,1.0,2.0
159.8629177,-0.1552272034,-1.252894592,0.2674937439,1.290501161,1.0,2.0
159.8728597,-0.664019165,-1.081501007,0.450712738,1.346739712,1.0,2.0
159.8828017,-1.305585022,-0.9918374634,0.7346722412,1.796673901,1.0,2.0
159.8927437,-2.144590302,-0.8867559814,0.9078620911,2.491950503,1.0,2.0
159.9026857,-3.258873138,-0.6815327454,0.7595205688,3.414910322,1.0,2.0
159.9126277,-4.818030853,-0.2335144043,-0.1112187195,4.824968382,1.0,2.0
159.9225697,-6.715634766,0.3899391174,-1.295555878,6.850566973,1.0,2.0
159.9325127,-8.85753067,1.553768921,-2.776426392,9.411619996,1.0,2.0
159.9424547,-9.540260925,3.573069763,-5.056035919,11.37307809,1.0,2.0
159.9523967,-8.76741806,6.031707001,-8.050259399,13.34375454,1.0,2.0
159.9623387,-6.398144989,9.505982208,-11.80340469,16.45054161,1.0,2.0
159.9722807,-2.641706543,13.08369232,-15.25612473,20.2709388,1.0,2.0
159.9822227,2.04175415,16.76603485,-15.25866943,22.76171517,1.0,2.0
159.9921647,6.98537384,21.61654816,-13.06528061,26.20633815,1.0,2.0
295.0096805,-3.609444122,4.805756378,8.751251678,10.61639238,1.0,3.0
295.0196215,-3.085683289,4.845723267,9.648186493,11.22897938,1.0,3.0
295.0295625,-2.061363373,5.026247864,9.930649109,11.31946016,1.0,3.0
295.0395035,-1.458417206,5.224884796,9.502988434,10.94226627,1.0,3.0
295.0494445,-1.757794647,5.355113983,8.70080658,10.36682801,1.0,3.0
295.0593855,-2.405946808,5.377866669,7.812853088,9.785228834,1.0,3.0
295.0693265,-2.884351959,5.145400085,7.097341003,9.228590227,1.0,3.0
295.0792675,-3.060535583,4.765340424,6.61803772,8.71055513,1.0,3.0
295.0892085,-3.414250031,4.570595398,6.024971008,8.297452694,1.0,3.0
295.0991495,-3.989354095,4.73061264,5.809568939,8.487916901,1.0,3.0
295.1090905,-3.990850983,5.259612579,6.562503204,9.308966879,1.0,3.0
295.1190315,-3.362008667,5.877826996,8.134683838,10.58418791,1.0,3.0
295.1289725,-2.390229492,5.606141968,9.113199005,10.9632304,1.0,3.0
295.1389135,-1.836680603,5.198389893,9.259145508,10.77629012,1.0,3.0
295.1488545,-2.112856293,5.309458923,9.044342194,10.69834761,1.0,3.0
295.1587955,-2.644850006,5.302273865,8.572822723,10.42125852,1.0,3.0
295.1687365,-3.015479279,5.188360748,8.081394653,10.06584036,1.0,3.0
295.1786773,-3.250340881,5.119354248,7.720495148,9.817257717,1.0,3.0
295.1886183,-3.310964813,5.198838959,7.621999969,9.802310852,1.0,3.0
295.1985593,-3.201093292,5.272934875,7.707921295,9.872329571,1.0,3.0
295.2085003,-2.938539276,5.165158997,8.191415863,10.11993945,1.0,3.0
295.2184413,-2.299368439,5.114713898,9.462273102,10.99918205,1.0,3.0
295.2283823,-1.645378418,5.127886505,10.55500076,11.84949498,1.0,3.0
295.2383233,-1.606908417,5.001249847,10.53359528,11.77078095,1.0,3.0
295.2482643,-2.326312408,4.945715332,9.32905014,10.81216935,1.0,3.0
295.2582053,-3.203039246,5.010530548,7.630681915,9.674305312,1.0,3.0
295.2681463,-3.604354706,4.806355133,6.176006927,8.616001629,1.0,3.0
295.2780873,-3.617976379,4.55981781,5.334157562,7.895247206,1.0,3.0
295.2880283,-3.55121521,4.640050964,5.140909424,7.782682836,1.0,3.0
295.2979693,-3.388503571,5.113965454,6.298152924,8.792117456,1.0,3.0
295.3079103,-3.140918427,5.30511795,8.047265625,10.13746167,1.0,3.0
295.3178513,-2.576142883,5.044060822,8.255033569,10.01122575,1.0,3.0
295.3269705,-4.964875488,5.44328064,9.367819519,11.91785783,1.0,3.0
295.3369125,-4.894821167,5.233267365,9.152567139,11.62393422,1.0,3.0
295.3468535,-4.85006424,4.877756653,8.8412146,11.20190648,1.0,3.0
295.3567945,-4.973258057,4.572541351,8.498128052,10.85631662,1.0,3.0
295.3667355,-5.093757477,4.32226181,8.239016876,10.60705951,1.0,3.0
295.3766765,-5.055736542,4.027824097,8.019124146,10.30000927,1.0,3.0
295.3866175,-4.874463501,3.7278479,7.757767639,9.891420683,1.0,3.0
295.3965585,-4.64873291,3.52427124,7.464826813,9.473903355,1.0,3.0
295.4065005,-4.28019928,3.489992523,7.196734314,9.071556563,1.0,3.0
295.4164415,-3.852837982,3.509901123,7.181466064,8.873399644,1.0,3.0
295.4263825,-3.207529907,3.680396576,7.558531952,8.998053808,1.0,3.0
295.4363235,-2.657723236,3.812871094,7.772287445,9.055933464,1.0,3.0
295.4462645,-2.289788361,3.841910706,7.865244141,9.047954133,1.0,3.0
295.4562055,-2.141596527,3.724105682,7.853119354,8.951362042,1.0,3.0
295.4661475,-2.35415451,3.52546875,7.85596344,8.926765088,1.0,3.0
295.4760885,-2.557132416,3.24585022,7.789202271,8.817377266,1.0,3.0
295.4860295,-2.44785965,2.903063049,7.592361603,8.48903685,1.0,3.0
295.4959705,-2.107467499,2.676733704,7.449259186,8.191323763,1.0,3.0
295.5059115,-1.815873871,2.436932373,7.350165253,7.953676291,1.0,3.0
295.5158525,-1.58310791,2.215243378,7.502398682,7.981197896,1.0,3.0
295.5257945,-1.446591797,1.986968079,7.881560211,8.255886466,1.0,3.0
295.5357355,-1.307680664,1.729054413,8.291707306,8.570418189,1.0,3.0
295.5456765,-1.155147858,1.383273468,8.673712921,8.858956366,1.0,3.0
295.5556175,-0.9126521301,0.9892927551,8.818312225,8.920440828,1.0,3.0
295.5655585,-0.5959107971,0.5885760498,8.735684052,8.775745398,1.0,3.0
295.5754995,-0.5216651917,0.3647914124,8.729397125,8.752575708,1.0,3.0
295.5854405,-0.563278656,0.1438508606,8.988957367,9.007737255,1.0,3.0
295.5953825,-0.5460644531,0.0845741272,9.901609497,9.917016174,1.0,3.0
295.6053235,-0.2968327332,0.2665956116,11.10705276,11.1142163,1.0,3.0
295.6152645,-0.06840774536,0.2609074402,12.05622894,12.05924577,1.0,3.0
295.6252055,-0.1082249451,0.05703140259,12.9181366,12.91871582,1.0,3.0
295.6351465,-0.1899549866,-0.3373983765,14.08451111,14.08983228,1.0,3.0
295.6450875,-0.4125421143,-0.8572673035,15.9014328,15.92986702,1.0,3.0
295.6550295,-0.9511221313,-0.9114546204,18.17325851,18.22094146,1.0,3.0
295.6649705,-1.634301453,-0.2875520325,20.17893768,20.24705296,1.0,3.0
295.6749115,-1.912273407,0.463585968,21.48167862,21.57160675,1.0,3.0
295.6848525,-1.359023895,0.8481362915,21.85096069,21.90960439,1.0,3.0
295.6947935,-0.2661465454,0.6494993591,20.98965179,21.00138486,1.0,3.0
295.7047345,0.8770262146,0.1799258423,19.12872162,19.14966159,1.0,3.0
295.7146765,1.599723358,-0.1017883301,17.22393265,17.29836211,1.0,3.0
295.7246175,1.760039978,-0.09774673462,15.85757401,15.95524831,1.0,3.0
295.7345585,1.235081635,0.07214996338,15.28202087,15.3320186,1.0,3.0
295.7444995,0.196690979,0.5233117676,15.21945099,15.22971539,1.0,3.0
295.7544405,-0.9671388245,1.182540894,15.37333099,15.44904742,1.0,3.0
295.7643815,-1.820065155,1.913620605,15.23621613,15.46340399,1.0,3.0
295.7743235,-2.107766876,2.456840973,14.2823996,14.64464704,1.0,3.0
295.7842645,-1.739233246,2.398162994,12.2611528,12.61395997,1.0,3.0
295.7942055,-1.187929688,2.022144928,10.08692413,10.35597825,1.0,3.0
295.8041465,-0.8261320496,1.732796631,7.601492615,7.840138283,1.0,3.0
295.8140875,-0.9653425598,0.6358776855,4.901108093,5.035582114,1.0,3.0
295.8240285,-1.39704483,-1.025367737,3.475921783,3.883960028,1.0,3.0
295.8339705,-2.620750122,0.07394622803,3.18492691,4.125234378,1.0,3.0
295.8439115,-2.649939423,1.103654938,2.065554657,3.536488259,1.0,3.0
295.8538525,-2.023791504,1.794019318,2.473306732,3.664898846,1.0,3.0
295.8637935,-3.179538116,2.941682739,4.311484222,6.111616494,1.0,3.0
295.8737345,-3.986959076,4.208498383,6.007457428,8.348463694,1.0,3.0
295.8836755,-3.834126892,5.140011292,7.632178802,9.968470212,1.0,3.0
295.8936175,-2.439776459,4.849315796,8.292306061,9.911140836,1.0,3.0
295.9035585,-1.002914429,3.951931915,8.322543182,9.267595602,1.0,3.0
295.9134995,0.620609436,3.223097534,7.126380615,7.845942548,1.0,3.0
295.9234405,0.1471440125,2.001487885,5.193899231,5.568141012,1.0,3.0
295.9333815,-1.340312805,0.970581665,3.46349762,3.838526142,1.0,3.0
295.9433225,-1.08584198,0.9485774231,2.190844116,2.622718032,1.0,3.0
295.9532645,-0.822689209,0.5571414185,1.161135406,1.528221033,1.0,3.0
295.9632055,-1.867965546,-0.005987548828,0.9135502625,2.079400205,1.0,3.0
295.9731465,-4.632267151,0.329614563,3.110531616,5.589450031,1.0,3.0
295.9830875,-4.224814453,-0.003143463135,5.195246429,6.69624167,1.0,3.0
295.9930285,-1.272952881,-1.158590698,5.861510925,6.109013977,1.0,3.0
296.0029705,0.9574090576,-2.246228943,5.793552246,6.287083918,1.0,3.0
296.0129115,1.444346466,-2.784659271,4.791985016,5.727441345,1.0,3.0
296.0228525,0.2104623413,-2.232607269,4.245471497,4.801339172,1.0,3.0
296.0327935,-1.12446167,-0.9762698364,4.578379211,4.81446498,1.0,3.0
296.0427345,-0.652792511,-0.1686991882,6.490652618,6.52557805,1.0,3.0
296.0526755,-0.06227050781,1.277293854,9.898466034,9.980730786,1.0,3.0
296.0626175,0.5017565918,2.871029663,11.85100571,12.20413484,1.0,3.0
296.0725585,0.3658392334,4.572541351,13.59787308,14.35075346,1.0,3.0
296.0824995,0.1448986816,6.136339417,15.51583466,16.68582579,1.0,3.0
296.0924405,0.2221380615,7.442074127,17.72045013,19.22103446,1.0,3.0
296.1023815,0.4326004028,8.633147278,20.23282562,22.00194554,1.0,3.0
296.1123225,1.668879547,8.255033569,21.08081223,22.70091149,1.0,3.0
296.1222645,2.653681641,7.135960693,18.41006607,19.92221107,1.0,3.0
296.1322055,2.774630127,6.786736908,14.84492981,16.55688108,1.0,3.0
296.1421465,2.067650299,7.488028564,12.56532028,14.77271212,1.0,3.0
296.1520875,0.4441264343,8.129145355,11.48816025,14.08041471,1.0,3.0
296.1620285,-0.2885998535,7.739206238,10.75393707,13.25238717,1.0,3.0
296.1719705,-0.1353186035,6.204148407,10.77683945,12.43583681,1.0,3.0
296.1819115,0.7244934082,4.543950806,10.71292236,11.6592918,1.0,3.0
296.1918525,1.632804565,3.328328705,10.09500732,10.75420827,1.0,3.0
296.2017935,2.15417038,2.607577515,8.789871368,9.418160606,1.0,3.0
296.2117345,1.290316772,2.29682373,7.790250092,8.223643542,1.0,3.0
296.2216755,0.5623805237,2.165696411,6.723717957,7.086246959,1.0,3.0
296.2316175,-1.803000641,2.537822571,4.547094269,5.510664298,1.0,3.0
296.2415585,-5.930966492,2.848726044,1.563798065,6.7629186,1.0,3.0
296.2514995,-2.221530304,0.5427713013,0.6854246521,2.387384454,1.0,3.0
296.2614405,0.9669891357,-0.6893165588,0.5054988098,1.290641063,1.0,3.0
296.2713815,0.7225474548,0.1719923401,0.5631289673,0.93207855,1.0,3.0
296.2813235,0.5156776428,0.7979905701,0.9651928711,1.354366885,1.0,3.0
296.2912645,0.8379574585,0.8384065247,1.271006927,1.737974917,1.0,3.0
296.3012055,0.9988728333,1.023272095,1.381776581,1.988501757,1.0,3.0
296.311147,0.9247769165,1.334624634,1.187779999,2.011779457,1.0,3.0
296.321088,0.6533912659,1.632804565,0.7243437195,1.902010704,1.0,3.0
296.331029,0.06227050781,1.78788208,0.3390449524,1.820810651,1.0,3.0
296.340971,-0.5349874878,1.719624023,0.4513114929,1.856609937,1.0,3.0
296.350912,-0.9268725586,1.270258484,3.132685547,3.505191591,1.0,3.0
296.360853,-0.7387138367,1.221160583,1.677561493,2.202531241,1.0,3.0
296.370794,-0.5942642212,1.690434723,0.4918771362,1.858134181,1.0,3.0
296.380735,-0.4825964355,2.216590576,0.01347198486,2.268557823,1.0,3.0
296.390677,1.172960815,3.313359833,-0.1429527283,3.517758653,1.0,3.0
296.400618,1.253643036,1.357077942,-0.2116598511,1.859591701,1.0,3.0
296.410559,-0.1586700439,-0.3508703613,0.1818717957,0.4258679882,1.0,3.0
296.4205,-0.07319778442,0.1362167358,0.7325765991,0.748719833,1.0,3.0
296.430441,0.9987231445,1.493294678,1.354533234,2.249919375,1.0,3.0
296.440383,1.891766052,1.493144989,2.601589966,3.546340523,1.0,3.0
296.450324,2.582130432,1.489851837,4.527784424,5.421059662,1.0,3.0
296.460265,3.456761627,1.745969238,6.636150055,7.683495108,1.0,3.0
296.470206,4.76923233,2.098785553,8.491392059,9.962641062,1.0,3.0
296.480147,7.250023499,2.813848572,9.686656494,12.42223404,1.0,3.0
296.490088,11.29446304,4.721930695,11.1371402,16.54984643,1.0,3.0
296.50003,18.28702194,8.094716949,18.0514119,26.94054724,1.0,3.0
296.509971,20.96450409,11.14357681,22.23820541,32.5304091,1.0,3.0
296.519912,21.2842392,11.17336487,19.91623398,31.21729163,1.0,3.0
296.529853,24.98259842,9.678722992,22.67784119,35.10117353,1.0,3.0
296.539794,21.84033279,8.045918427,23.63914215,33.17447786,1.0,3.0
296.549736,20.36290512,6.969207458,23.69886795,32.01334253,1.0,3.0
296.559677,18.50511841,6.174809418,23.58166168,30.60494153,1.0,3.0
296.569618,16.93563217,5.922434235,22.99473221,29.1658803,1.0,3.0
296.579559,15.03443573,5.550757141,21.13829269,26.52682756,1.0,3.0
296.5895,12.41144028,4.475842438,17.89678345,22.23447488,1.0,3.0
296.599442,9.602381744,3.009342041,14.21039932,17.41256224,1.0,3.0
296.609383,7.033124542,1.671573944,11.30389343,13.41778696,1.0,3.0
296.619324,4.930896149,0.6146218872,9.511371002,10.73115442,1.0,3.0
296.629265,3.43775116,-0.06990463257,8.357570343,9.037256317,1.0,3.0
296.639206,2.312391357,-0.286204834,7.716004486,8.060135993,1.0,3.0
296.649148,1.652862854,-0.1878593445,7.18311264,7.373218697,1.0,3.0
296.659089,1.212927704,0.1868115234,5.837411041,5.965019684,1.0,3.0
296.66903,0.8008346558,0.8390052795,3.453318787,3.642893993,1.0,3.0
296.678971,1.24496109,1.843117218,0.5827381897,2.299259227,1.0,3.0
296.688912,2.741997986,3.166814575,-1.994003448,4.639322931,1.0,3.0
296.698854,4.391417999,4.689298553,-3.980372772,7.557608112,1.0,3.0
296.708795,5.163811798,5.879922638,-4.892575836,9.229070421,1.0,3.0
296.718736,5.119204559,6.57358017,-4.506229248,9.472291888,1.0,3.0
296.728677,5.278772736,6.855743408,-2.964136047,9.146188374,1.0,3.0
296.738618,5.475463715,6.938970337,-0.8994795227,8.884766493,1.0,3.0
296.748559,5.794450378,7.602540436,0.4562512207,9.569871548,1.0,3.0
296.758501,6.686146088,8.432714081,1.210832062,10.82965053,1.0,3.0
296.768442,6.729855194,7.488178253,2.692900085,10.42187485,1.0,3.0
296.778383,5.194947052,5.616171112,4.371359711,8.811222308,1.0,3.0
296.788324,2.857108612,3.882925415,5.330265656,7.186926419,1.0,3.0
296.798266,0.9249266052,2.791395264,5.560037842,6.289785175,1.0,3.0
296.808207,-0.2844085693,2.490670624,5.3203862,5.881397598,1.0,3.0
296.818148,-0.5086422729,2.257605286,4.894072723,5.413635231,1.0,3.0
296.828089,-0.287252655,1.856140137,4.366270294,4.753113356,1.0,3.0
296.83803,0.0217048645,1.35617981,3.576811981,3.825346877,1.0,3.0
296.847971,0.6553372192,0.9768685913,2.787653046,3.025681513,1.0,3.0
296.857913,1.24376358,1.074016571,1.946701813,2.547568917,1.0,3.0
296.867854,1.660646667,1.332978058,1.234931946,2.461632541,1.0,3.0
296.877795,2.418670349,1.444795532,0.7667056274,2.919801005,1.0,3.0
296.887736,3.185825043,1.545236664,0.429307251,3.566727108,1.0,3.0
296.897677,3.596271515,1.795665894,0.1300794983,4.021754031,1.0,3.0
296.907619,4.137545929,2.158511353,-0.1971400452,4.670901601,1.0,3.0
296.91756,4.681215363,2.487976227,-0.5918692017,5.334239602,1.0,3.0
296.927501,5.317691803,2.495161285,-0.969533844,5.953458812,1.0,3.0
296.937442,6.308331757,2.082619171,-1.142274628,6.740707937,1.0,3.0
296.947383,8.446186066,1.412612457,-0.5051994324,8.578389096,1.0,3.0
296.957325,10.96709381,1.422641602,1.574425964,11.17049117,1.0,3.0
296.967266,15.75907883,2.43723175,4.36447403,16.53291558,1.0,3.0
296.977207,24.64849319,4.588707733,6.893315277,26.00235087,1.0,3.0
296.987148,35.03928543,8.282127228,8.942553864,37.0987119,1.0,3.0
296.997089,43.37829437,13.07141785,11.14193024,46.65491396,1.0,3.0
297.007031,46.27192703,16.63041687,12.20951019,50.66294638,1.0,3.0
297.016972,43.08295853,16.44300659,10.47177383,47.28817853,1.0,3.0
297.026913,36.70337494,12.88909698,6.481671295,39.43702088,1.0,3.0
297.036854,29.56157639,9.163943481,2.830613708,31.07856227,1.0,3.0
297.046796,23.20953552,6.993307343,0.7213499451,24.25096354,1.0,3.0
297.056737,18.61334335,6.141129456,-0.1294807434,19.60068333,1.0,3.0
297.066678,15.61867081,6.082451477,-0.04086502075,16.76128765,1.0,3.0
297.076619,13.72181534,6.393504639,0.6429130554,15.15184659,1.0,3.0
297.08656,12.26639191,6.434369659,1.306183777,13.91300109,1.0,3.0
297.096501,10.88371719,5.856122131,1.63340332,12.46665443,1.0,3.0
297.106443,9.438622284,4.971012726,1.662891998,10.79647016,1.0,3.0
297.116384,7.554939423,4.217180328,1.386267242,8.762616987,1.0,3.0
297.126325,5.640570374,3.452270966,0.758921814,6.656588562,1.0,3.0
297.136266,3.918401642,2.560275879,0.2077679443,4.685301647,1.0,3.0
297.146208,2.246079254,1.680704956,-0.0549357605,2.805825922,1.0,3.0
297.156149,0.93256073,0.9141490173,-0.1658551025,1.316376031,1.0,3.0
297.16609,0.277073822,0.2811154175,-0.1890568542,0.4376508596,1.0,3.0
297.176031,0.4715194702,-0.02335144043,-0.4135899353,0.6276404505,1.0,3.0
297.185972,0.6581813049,0.2956352234,-0.8421487427,1.108971289,1.0,3.0
297.195914,-0.3700305176,0.4424798584,-1.130598907,1.26923792,1.0,3.0
297.205855,-1.551373901,-0.06601272583,-1.36546051,2.067752661,1.0,3.0
297.215796,-2.536924438,-0.5662724304,-1.484612732,2.993447016,1.0,3.0
