Time (s),Acceleration x (m/s^2),Acceleration y (m/s^2),Acceleration z (m/s^2),Absolute acceleration (m/s^2),label,window
205.0018666,-0.5460644531,-1.391805725,10.08228378,10.19253432,1.0,0.0
205.0119036,-0.4260140991,-1.736538849,10.32448013,10.47816516,1.0,0.0
205.0219406,-0.1399589539,-1.933379517,10.6686145,10.84328734,1.0,0.0
205.0319776,0.112565918,-1.848206635,11.01529358,11.16983579,1.0,0.0
205.0420146,0.07933502197,-1.427132263,11.63425644,11.72172869,1.0,0.0
205.0520516,-0.3188369751,-0.8066725159,12.59435989,12.62419418,1.0,0.0
205.0620886,-0.5902226257,-0.170944519,13.3215477,13.33571212,1.0,0.0
205.0721256,-0.9321116638,0.3192860413,13.610896,13.64651111,1.0,0.0
205.0821626,-1.510957947,0.6944059753,13.61823074,13.71938053,1.0,0.0
205.0921996,-1.99385376,1.021924896,13.40567276,13.59160938,1.0,0.0
205.1022376,-2.163151703,1.215622101,12.82308426,13.06095143,1.0,0.0
205.1122746,-2.035467224,1.30229187,12.16714828,12.40478087,1.0,0.0
205.1223116,-1.663041687,1.218615875,11.46660507,11.65048343,1.0,0.0
205.1323486,-1.163979492,1.044078827,10.71097641,10.82450759,1.0,0.0
205.1423856,-0.6026467896,0.8732839966,10.09845016,10.15403879,1.0,0.0
205.1524226,-0.03083587646,0.7237449646,9.688153381,9.715198071,1.0,0.0
205.1624596,0.5441184998,0.5387297058,9.464967499,9.495888815,1.0,0.0
205.1724966,0.9193881226,0.399818573,9.381441193,9.434859207,1.0,0.0
205.1825336,0.74065979,0.1904040527,9.379195862,9.410321229,1.0,0.0
205.1925706,0.5194198608,-0.02514770508,9.44490921,9.459214523,1.0,0.0
205.2026076,0.1826202393,-0.3339555359,9.7502742,9.757700725,1.0,0.0
205.2126446,-0.04071533203,-0.9656419373,10.28466293,10.32997646,1.0,0.0
205.2226816,0.1429527283,-1.500928802,10.36968613,10.47872192,1.0,0.0
205.2327186,0.1472937012,-1.681902466,10.16386414,10.30313668,1.0,0.0
205.2427556,0.182769928,-1.641037445,9.933343506,10.06964359,1.0,0.0
205.2527926,0.4170327759,-1.414408722,9.755662994,9.866480063,1.0,0.0
205.2628296,0.5051994324,-1.140478363,9.940079498,10.01803862,1.0,0.0
205.2728666,0.6595285034,-0.8391549683,10.51413574,10.56816963,1.0,0.0
205.2829036,1.007854156,-0.5477110291,11.2923674,11.35047659,1.0,0.0
205.2929406,1.040935364,-0.4397854614,11.7382901,11.79255749,1.0,0.0
205.3029776,0.9063652039,-0.8629554749,11.94515991,12.01053851,1.0,0.0
205.3130156,0.8315208435,-1.554816742,12.02599182,12.15456134,1.0,0.0
205.3230526,0.7976911926,-2.188449097,11.54144943,11.77415286,1.0,0.0
205.3330896,0.8646020508,-2.462080078,10.76112213,11.07299077,1.0,0.0
205.3431266,0.9310638428,-2.390379181,9.91298584,10.23953518,1.0,0.0
205.3531636,0.9912387085,-2.108814697,9.089099121,9.383036632,1.0,0.0
205.3632006,1.448687439,-1.480271759,8.643625488,8.888316002,1.0,0.0
205.3732376,1.938917999,-0.6569837952,8.753197632,8.989410409,1.0,0.0
205.3832746,1.972448273,-0.1044827271,9.148226166,9.359033647,1.0,0.0
205.3933116,1.810335388,0.04385879517,9.642348633,9.810918661,1.0,0.0
205.4033486,1.421593781,0.1219963074,9.931397552,10.0333678,1.0,0.0
205.4133856,1.056952057,0.3300636292,9.879156189,9.941016882,1.0,0.0
205.4234226,0.7188052368,0.4415817261,9.70821167,9.744796007,1.0,0.0
205.4334596,0.4107458496,0.5090913391,9.417516174,9.440206409,1.0,0.0
205.4434966,0.1916015625,0.5207670593,8.967252502,8.984404651,1.0,0.0
205.4535336,0.2574645996,0.5284011841,8.557853851,8.578015993,1.0,0.0
205.4635706,0.2906954956,0.4433779907,8.069868622,8.087265761,1.0,0.0
205.4736076,0.3327580261,0.3603007507,7.692952423,7.708570653,1.0,0.0
205.4836446,0.3637435913,0.3504212952,7.672594757,7.68920118,1.0,0.0
205.4936816,0.2176473999,0.3722758484,7.864346008,7.876160095,1.0,0.0
205.5037186,0.1595681763,0.3861968994,7.990084534,8.001003744,1.0,0.0
205.5137566,0.02320175171,0.3809577942,8.163424072,8.172341142,1.0,0.0
205.5237936,-0.06765930176,0.3086581421,8.183931427,8.190029379,1.0,0.0
205.5338306,-0.04161346436,0.2320175171,8.154442749,8.157849003,1.0,0.0
205.5438676,0.07319778442,0.2661465454,8.056696014,8.061423111,1.0,0.0
205.5539046,-0.003742218018,0.2577639771,7.993078308,7.997234341,1.0,0.0
205.5639416,-0.1161584473,0.2188449097,8.115972748,8.119753661,1.0,0.0
205.5739786,-0.2089654541,0.1134640503,8.415050812,8.418409637,1.0,0.0
205.5840156,-0.2043251038,0.1460961914,8.807384949,8.810966036,1.0,0.0
205.5940526,-0.2323168945,0.136665802,9.154363403,9.158330525,1.0,0.0
205.6040896,-0.2152523804,0.1157093811,9.469158783,9.472311772,1.0,0.0
205.6141266,-0.1881587219,0.2558180237,9.714947662,9.720136555,1.0,0.0
205.6241636,-0.1657054138,0.3267704773,9.749376068,9.75625804,1.0,0.0
205.6342007,-0.06451583862,0.406255188,9.761351166,9.77001444,1.0,0.0
205.6442377,-0.03128494263,0.5138813782,9.810598755,9.824097961,1.0,0.0
205.6542747,-0.15328125,0.7598199463,9.799372101,9.82998042,1.0,0.0
205.6643117,-0.4233197021,1.085093536,10.05803421,10.12524961,1.0,0.0
205.6743487,-0.5667214966,1.344055023,10.27298721,10.37602638,1.0,0.0
205.6843857,-0.5990542603,1.465602264,10.25487488,10.37638255,1.0,0.0
205.6944227,-0.5560935974,1.509910126,10.18197647,10.30833224,1.0,0.0
205.7044597,-0.4312532043,1.454076233,10.06941055,10.18299297,1.0,0.0
205.7144977,-0.3403921509,1.400787048,9.984686737,10.08821294,1.0,0.0
205.7245347,-0.3592529297,1.350940704,9.866432648,9.964968472,1.0,0.0
205.7345717,-0.429307251,1.245410156,9.790540466,9.878766816,1.0,0.0
205.7446087,-0.5281018066,1.105451202,9.856702881,9.932547788,1.0,0.0
205.7546457,-0.5228627014,0.9789642334,9.899064789,9.96108629,1.0,0.0
205.7646827,-0.535436554,0.9244775391,9.929750977,9.987056898,1.0,0.0
205.7747197,-0.5282514954,0.9678872681,10.14141083,10.20117978,1.0,0.0
205.7847567,-0.5560935974,1.044827271,10.49377808,10.5603164,1.0,0.0
205.7947937,-0.6062393188,1.081051941,10.87503525,10.945437,1.0,0.0
205.8048307,-0.5888754272,1.145717468,11.15585129,11.22998044,1.0,0.0
205.8148677,-0.5575904846,1.234632568,11.29221771,11.37318801,1.0,0.0
205.8249047,-0.5111869812,1.249152374,11.20659576,11.28758089,1.0,0.0
205.8349417,-0.4834945679,1.245410156,10.89404572,10.97565695,1.0,0.0
205.8449787,-0.4424798584,1.263821869,10.5120401,10.5969817,1.0,0.0
205.8550157,-0.3677851868,1.245559845,10.16072067,10.24338469,1.0,0.0
205.8650527,-0.3013233948,1.277892609,9.863738251,9.95073553,1.0,0.0
205.8750897,-0.2841091919,1.474733276,9.808503113,9.922816615,1.0,0.0
205.8851267,-0.3641926575,1.721420288,10.12509476,10.27684134,1.0,0.0
205.8951637,-0.4558021545,1.868264923,10.33944901,10.51676638,1.0,0.0
205.9052007,-0.5406756592,1.913620605,10.38660095,10.57524247,1.0,0.0
205.9152387,-0.5330415344,1.824855194,10.36235138,10.53530046,1.0,0.0
205.9252757,-0.3390449524,1.411714325,10.44408142,10.54451163,1.0,0.0
205.9353127,-0.2650987244,0.9226812744,10.35576508,10.40016771,1.0,0.0
205.9453497,-0.02649490356,0.7575746155,10.05773483,10.08626052,1.0,0.0
205.9553867,0.1273851013,0.5608836365,9.909992065,9.926669137,1.0,0.0
205.9654237,0.1489402771,0.1927990723,10.21535706,10.21826181,1.0,0.0
205.9754607,0.1187031555,0.1083746338,10.67744614,10.67865588,1.0,0.0
205.9854977,-0.03682342529,0.2447410583,11.12905701,11.13180866,1.0,0.0
205.9955347,-0.2137554932,0.310304718,11.51989426,11.52605501,1.0,0.0
206.0055717,-0.4323010254,0.5432203674,11.76987442,11.79033148,1.0,0.0
206.0156087,-0.783021698,0.7926017761,11.62632294,11.67958585,1.0,0.0
206.0256457,-1.147064667,0.8833131409,11.11393845,11.20783776,1.0,0.0
206.0356827,-1.428778839,0.8554710388,10.42566971,10.55783257,1.0,0.0
206.0457197,-1.582209778,0.7979905701,9.705666962,9.866111083,1.0,0.0
206.0557567,-1.679806824,0.7355703735,9.011560364,9.196251135,1.0,0.0
206.0657937,-1.697320404,0.6858737183,8.479866028,8.675220295,1.0,0.0
206.0758307,-1.668280792,0.6737489319,8.106841736,8.304094253,1.0,0.0
206.0858677,-1.500330048,0.6813830566,7.96598465,8.134628729,1.0,0.0
206.0959047,-1.308429108,0.7993377686,8.13677948,8.279982361,1.0,0.0
206.1059417,-1.11158844,0.9458830261,8.384065247,8.510162961,1.0,0.0
206.1159787,-0.9779164124,0.9946815491,8.537945251,8.651139868,1.0,0.0
206.1260157,-0.9331594849,1.047072601,8.572373657,8.686353537,1.0,0.0
206.1360537,-1.041983185,1.056802368,8.469537506,8.598582777,1.0,0.0
206.1460907,-1.242416382,0.999022522,8.394992523,8.545030364,1.0,0.0
206.1561277,-1.442999268,0.9431886292,8.403375092,8.578377737,1.0,0.0
206.1661647,-1.624421997,0.9409432983,8.407266998,8.614305514,1.0,0.0
206.1762017,-1.766626282,0.909508667,8.497229919,8.726459233,1.0,0.0
206.1862387,-1.891017609,0.7788304138,8.772357788,9.007595993,1.0,0.0
206.1962757,-1.918410645,0.6248007202,9.15002243,9.369823148,1.0,0.0
206.2063127,-1.837578735,0.5614823914,9.525741119,9.71759754,1.0,0.0
206.2163497,-1.792372742,0.5854325867,9.882149963,10.06042838,1.0,0.0
206.2263867,-1.732048187,0.5206173706,10.11506561,10.2754847,1.0,0.0
206.2364237,-1.756896515,0.463585968,10.24948608,10.40930172,1.0,0.0
206.2464607,-1.973196716,0.3784130859,10.19963974,10.39564104,1.0,0.0
206.2564977,-2.188449097,0.2894979858,10.09485764,10.3334055,1.0,0.0
206.2665347,-2.317031708,0.169896698,9.952054596,10.21963265,1.0,0.0
206.2765717,-2.371967468,0.06511459351,9.707163849,9.992972509,1.0,0.0
206.2866087,-2.394720154,0.07529342651,9.345216522,9.647456948,1.0,0.0
206.2966457,-2.404898987,0.0687071228,9.054371338,9.368559128,1.0,0.0
206.3066827,-2.208806763,-0.02409988403,8.874744873,9.145518284,1.0,0.0
206.3167197,-2.058070221,0.04161346436,8.777297516,9.015449872,1.0,0.0
206.3267567,-2.061063995,0.1178050232,8.732839966,8.973536465,1.0,0.0
206.3367947,-2.04878952,0.1008901978,8.752449188,8.989609787,1.0,0.0
206.3468317,-2.099683685,0.1296304321,8.822204132,9.069551333,1.0,0.0
206.3568687,-2.159559174,0.1850152588,8.701555023,8.967440342,1.0,0.0
206.3669057,-2.168390808,0.1676513672,8.577463074,8.848892499,1.0,0.0
206.3769427,-2.201771393,0.04311035156,8.540639648,8.819987606,1.0,0.0
206.3869797,-2.209555206,0.07454498291,8.573870544,8.854318002,1.0,0.0
206.3970167,-2.319726105,0.1345701599,8.61533432,8.923184621,1.0,0.0
206.4070537,-2.444416809,0.1124162292,8.591683502,8.933355268,1.0,0.0
206.4170907,-2.438878326,0.09714797974,8.610244904,8.949518564,1.0,0.0
206.4271277,-2.467468872,0.09954299927,8.597970428,8.945580302,1.0,0.0
206.4371647,-2.539768524,0.1565744019,8.578211517,8.947661847,1.0,0.0
206.4472017,-2.677781525,0.1981878662,8.64691864,9.054225218,1.0,0.0
206.4572387,-2.742596741,0.2779719543,8.803792419,9.225284074,1.0,0.0
206.4672757,-2.805466003,0.37676651,8.945397949,9.382576244,1.0,0.0
206.4773127,-2.854863281,0.4381388855,9.045390015,9.495329934,1.0,0.0
206.4873497,-2.891387329,0.4857398987,9.144933014,9.603429792,1.0,0.0
206.4973867,-2.861449585,0.5053491211,9.177565155,9.626576423,1.0,0.0
206.5074237,-2.845283203,0.4806504822,9.147477722,9.591819956,1.0,0.0
206.5174607,-2.819237366,0.4809498596,9.128018188,9.565569933,1.0,0.0
206.5274977,-2.748434601,0.4525090027,9.04479126,9.4639794,1.0,0.0
206.5375357,-2.730172577,0.4029620361,8.932674408,9.349272313,1.0,0.0
206.5475727,-2.723137207,0.3980223083,8.816815338,9.236348343,1.0,0.0
206.5576097,-2.668351135,0.4236190796,8.759783936,9.166971447,1.0,0.0
206.5676467,-2.607876892,0.4674778748,8.867709503,9.255043451,1.0,0.0
206.5776837,-2.552042999,0.5372328186,9.00736908,9.377325861,1.0,0.0
206.5877207,-2.340981903,0.5926176453,9.125323792,9.439434636,1.0,0.0
206.5977577,-2.186952209,0.5231620789,9.231303406,9.501232609,1.0,0.0
206.6077947,-2.027084656,0.5090913391,9.29043045,9.522622756,1.0,0.0
206.6178317,-1.961371307,0.4528083801,9.325756989,9.540532283,1.0,0.0
206.6278688,-1.936373291,0.3595523071,9.383087769,9.58755211,1.0,0.0
206.6379058,-2.114951935,0.3442840576,9.431736603,9.672083981,1.0,0.0
206.6479428,-2.26523941,0.3287164307,9.667047272,9.934342808,1.0,0.0
206.6579798,-2.359692993,0.3010240173,9.933193817,10.21406412,1.0,0.0
206.6680168,-2.423310699,0.2710862732,10.02435425,10.31666616,1.0,0.0
206.6780538,-2.383643188,0.3445834351,10.05474106,10.33916391,1.0,0.0
206.6880908,-2.298320618,0.4607418823,10.01402573,10.28471059,1.0,0.0
206.6981278,-2.222578125,0.5306465149,9.986483002,10.24457329,1.0,0.0
206.7081648,-2.051633606,0.5529501343,9.937684479,10.16230914,1.0,0.0
206.7182018,-1.837129669,0.5373825073,9.918374634,10.10138509,1.0,0.0
206.7282388,-1.680405579,0.2646496582,10.13931519,10.28102693,1.0,0.0
206.7382758,-1.628014526,-0.2814147949,10.54302567,10.67169226,1.0,0.0
206.7483138,-1.731150055,-0.7753875732,10.80408279,10.96933505,1.0,0.0
206.7583508,-1.794169006,-0.9934840393,10.92997101,11.12071577,1.0,0.0
206.7683878,-1.98217804,-1.098116455,11.0733728,11.30285251,1.0,0.0
206.7784248,-2.142344971,-1.079854431,11.35823044,11.60883828,1.0,0.0
206.7884618,-2.238145752,-0.9156459045,11.64129181,11.88980146,1.0,0.0
206.7984988,-2.228415985,-0.5789959717,11.83064804,12.05260583,1.0,0.0
206.8085358,-2.067201233,-0.2372566223,12.06506058,12.24317354,1.0,0.0
206.8185728,-1.850152588,-0.0,12.28794708,12.42645195,1.0,0.0
206.8286098,-1.664538574,0.2079176331,12.29722778,12.41111315,1.0,0.0
206.8386468,-1.522483978,0.4324507141,12.07149719,12.1748107,1.0,0.0
206.8486838,-1.555714874,0.6881190491,11.77481415,11.89705866,1.0,0.0
206.8587208,-1.732646942,0.8740324402,11.41645935,11.58022203,1.0,0.0
206.8687578,-1.855840759,0.9616003418,10.98550552,11.18258252,1.0,0.0
206.8787948,-1.968855743,0.9530680847,10.40276733,10.63025399,1.0,0.0
206.8888318,-1.786534882,0.9451345825,9.852062531,10.05724228,1.0,0.0
206.8988688,-1.542991333,0.9806108093,9.340725861,9.517960885,1.0,0.0
206.9089058,-1.251697083,0.9142987061,8.887169037,9.021333671,1.0,0.0
206.9189428,-0.8565188599,0.8693920898,8.608748016,8.694826598,1.0,0.0
206.9289798,-0.5206173706,0.7891589355,8.466543732,8.519165278,1.0,0.0
206.9390168,-0.243842926,0.5523513794,8.520132294,8.541499032,1.0,0.0
206.9490548,-0.03876937866,0.3013233948,8.719966736,8.725257516,1.0,0.0
206.9590918,0.1025367737,0.0556842041,8.878786469,8.879553124,1.0,0.0
206.9691288,0.1157093811,-0.1094224548,8.946745148,8.948162419,1.0,0.0
206.9791658,0.1074765015,-0.2806663513,8.934620361,8.939673697,1.0,0.0
206.9892028,0.1104702759,-0.4176315308,8.909173279,8.919640592,1.0,0.0
206.9992398,0.1585203552,-0.5116360474,9.029073944,9.044947564,1.0,0.0
207.0092768,0.2435435486,-0.458795929,9.311985626,9.326461465,1.0,0.0
207.0193138,0.3014730835,-0.3321592712,9.736951904,9.747279015,1.0,0.0
207.0293508,0.3914360046,-0.2456391907,10.15428406,10.16479441,1.0,0.0
207.0393878,0.3698808289,-0.1872605896,10.38705002,10.39532041,1.0,0.0
207.0494248,0.2329156494,-0.1017883301,10.46638504,10.46947116,1.0,0.0
207.0594618,0.1501377869,-0.09310638428,10.42821442,10.42971074,1.0,0.0
207.0694988,0.0773890686,-0.1115180969,10.33585648,10.33674777,1.0,0.0
207.0795358,0.0296383667,-0.1050814819,10.20158569,10.20216993,1.0,0.0
207.0895728,0.08951385498,-0.08981323242,10.09455826,10.09535465,1.0,0.0
207.0996098,0.1707948303,-0.07409591675,10.07719437,10.078914,1.0,0.0
207.1096468,0.3326083374,-0.08981323242,10.08123596,10.08712116,1.0,0.0
207.1196838,0.4911286926,-0.05538482666,10.06462051,10.07674853,1.0,0.0
207.1297208,0.6864724731,0.1107696533,10.25053391,10.27409167,1.0,0.0
207.1397588,0.6432124329,0.2227368164,10.48135391,10.50343343,1.0,0.0
207.1497958,0.549357605,0.2582130432,10.54841446,10.56586558,1.0,0.0
207.1598328,0.5260061646,0.2296224976,10.50710037,10.52276424,1.0,0.0
207.1698698,0.3947291565,0.1625619507,10.46773224,10.47643335,1.0,0.0
207.1799068,0.2354603577,0.0860710144,10.38525375,10.38827923,1.0,0.0
207.1899438,0.2155517578,-0.0288899231,10.1138681,10.11620607,1.0,0.0
207.1999808,0.2360591125,-0.1609153748,9.84278183,9.846927024,1.0,0.0
207.2100178,0.2781216431,-0.2323168945,9.771230621,9.777948182,1.0,0.0
207.2200548,0.274379425,-0.2466870117,9.79592926,9.802875528,1.0,0.0
207.2300918,0.2257305908,-0.3604504395,9.798174591,9.807400478,1.0,0.0
207.2401288,0.123792572,-0.5089416504,9.801617432,9.8156024,1.0,0.0
207.2501658,-0.01182540894,-0.5049000549,9.826016693,9.838987141,1.0,0.0
207.2602028,-0.146844635,-0.505947876,9.78545105,9.799622383,1.0,0.0
207.2702398,-0.2652484131,-0.5040019226,9.770482178,9.787067827,1.0,0.0
207.2802768,-0.4478686523,-0.4553530884,9.792935486,9.813741294,1.0,0.0
207.2903138,-0.4905299377,-0.3974235535,9.726324005,9.746791459,1.0,0.0
207.3003508,-0.4448748779,-0.3321592712,9.668843536,9.684770455,1.0,0.0
207.3103878,-0.3260220337,-0.2902464294,9.567055206,9.577007814,1.0,0.0
207.3204248,-0.2885998535,-0.1975891113,9.485325165,9.491771427,1.0,0.0
207.3304618,-0.3439846802,-0.1055305481,9.457333374,9.464175437,1.0,0.0
207.3404998,-0.3852987671,0.01990859985,9.590706024,9.598463082,1.0,0.0
207.3505368,-0.5186714172,0.1088237,9.784552917,9.798894756,1.0,0.0
207.3605738,-0.6445596313,0.06122268677,9.935439148,9.956513265,1.0,0.0
207.3706108,-0.6947053528,0.09610015869,10.02345612,10.04796115,1.0,0.0
207.3806478,-0.7529342651,0.2513273621,10.05713608,10.08841224,1.0,0.0
207.3906848,-0.8512797546,0.3989204407,10.22373962,10.26687229,1.0,0.0
207.4007218,-0.8916957092,0.5472619629,10.40740768,10.45986384,1.0,0.0
207.4107588,-0.8306227112,0.7987390137,10.51653076,10.57947718,1.0,0.0
207.4207958,-0.8619076538,0.9517208862,10.83431992,10.91013957,1.0,0.0
207.4308328,-0.8925938416,1.019978943,11.30119904,11.38218698,1.0,0.0
207.4408698,-0.9449848938,1.148711243,11.61255157,11.70742875,1.0,0.0
207.4509068,-0.9957293701,1.234333191,11.81747543,11.92341314,1.0,0.0
207.4609438,-0.8316705322,1.263372803,11.89965454,11.99539766,1.0,0.0
207.4709808,-0.6789880371,1.219813385,11.77167068,11.85416383,1.0,0.0
207.4810178,-0.4891827393,1.126707001,11.55656799,11.6216622,1.0,0.0
207.4910548,-0.386945343,1.025517426,11.41107056,11.4635921,1.0,0.0
207.5010918,-0.384250946,0.8181985474,11.04627914,11.08320263,1.0,0.0
207.5111288,-0.3814068604,0.6336323547,10.67011139,10.69571121,1.0,0.0
207.5211658,-0.4447251892,0.4938230896,10.29768585,10.31910731,1.0,0.0
207.5312028,-0.6541397095,0.3603007507,9.994715881,10.02257756,1.0,0.0
207.5412408,-0.7379653931,0.2682421875,9.706415405,9.738123372,1.0,0.0
207.5512778,-0.7822732544,0.3302133179,9.517957306,9.555757613,1.0,0.0
207.5613148,-0.9616003418,0.3918850708,9.269324341,9.32730523,1.0,0.0
207.5713518,-1.052910461,0.4583468628,9.128766632,9.200710978,1.0,0.0
207.5813888,-1.156345367,0.2815644836,9.230405273,9.306814422,1.0,0.0
207.5914258,-1.163829803,-0.3161425781,9.599687347,9.675145638,1.0,0.0
207.6014628,-1.062191162,-0.8316705322,9.974807281,10.06562001,1.0,0.0
207.6114998,-0.946481781,-0.946481781,10.09366013,10.18202486,1.0,0.0
207.6215368,-1.037492523,-1.128952332,10.23002655,10.34429153,1.0,0.0
207.6315735,-1.223555603,-1.39704483,10.61457687,10.77580924,1.0,0.0
207.6416105,-1.489851837,-1.204994202,11.01918549,11.18454819,1.0,0.0
207.6516475,-1.818568268,-0.4411326599,11.36421799,11.51725831,1.0,0.0
207.6616845,-2.205064545,0.4623884583,11.64368683,11.85966086,1.0,0.0
207.6717215,-2.524949341,1.205742645,11.7249678,12.05421314,1.0,0.0
207.6817585,-2.760559387,1.717528381,11.55761581,12.00620986,1.0,0.0
207.6917955,-2.888094177,2.098186798,11.1756102,11.73191115,1.0,0.0
207.7018325,-2.816842346,2.283800812,10.66876419,11.26822419,1.0,0.0
207.7118695,-2.509232025,2.312990112,10.11042526,10.67084194,1.0,0.0
207.7219065,-2.162702637,2.204166412,9.673633575,10.15454671,1.0,0.0
207.7319435,-1.962868195,2.021546173,9.287885742,9.7058911,1.0,0.0
207.7419805,-1.857187958,1.638343048,8.851243744,9.191182234,1.0,0.0
207.7520175,-1.692680054,1.191222839,8.284372559,8.539028417,1.0,0.0
207.7620555,-1.520687714,0.8701405334,7.799081726,7.993454287,1.0,0.0
207.7720925,-1.48131958,0.6201603699,7.420069885,7.591860357,1.0,0.0
207.7821295,-1.5819104,0.3278182983,7.099286957,7.280781596,1.0,0.0
207.7921665,-1.697170715,0.1221459961,6.909182281,7.115624209,1.0,0.0
207.8022035,-1.826651459,0.05777984619,7.000342712,7.234970087,1.0,0.0
207.8122405,-2.177821198,0.1067280579,7.324269104,7.64193784,1.0,0.0
207.8222775,-2.598147125,0.1968406677,7.739804993,8.166620847,1.0,0.0
207.8323145,-3.01413208,0.2788700867,8.202941895,8.743627191,1.0,0.0
207.8423515,-3.428171082,0.3144960022,8.765472107,9.417258941,1.0,0.0
207.8523885,-3.672163696,0.4433779907,9.3547966,10.05950246,1.0,0.0
207.8624255,-3.802243195,0.5806425476,9.775721283,10.50518566,1.0,0.0
207.8724625,-3.810326385,0.6116281128,9.914632416,10.63920166,1.0,0.0
207.8824995,-3.62141922,0.5304968262,9.715396729,10.38195731,1.0,0.0
207.8925365,-3.212020569,0.5275030518,9.268725586,9.823675971,1.0,0.0
207.9025735,-2.812501373,0.5653742981,8.735684052,9.194671714,1.0,0.0
207.9126105,-2.542762299,0.5387297058,8.376880188,8.770860362,1.0,0.0
207.9226475,-2.333946533,0.532742157,8.055199127,8.403413212,1.0,0.0
207.9326845,-2.138602753,0.6249504089,7.863896942,8.173436234,1.0,0.0
207.9427215,-1.99505127,0.8455915833,7.953410797,8.243300189,1.0,0.0
207.9527585,-2.080224152,1.012943573,8.186326447,8.507016392,1.0,0.0
207.9627965,-2.173330536,1.165027313,8.366701355,8.722519465,1.0,0.0
207.9728335,-2.22661972,1.257235565,8.411458282,8.791536105,1.0,0.0
207.9828705,-2.329156494,1.312620392,8.311765594,8.731173436,1.0,0.0
207.9929075,-2.4525,1.272354126,8.18363205,8.637446081,1.0,0.0
208.0029445,-2.549049225,1.188378754,8.073760529,8.549590931,1.0,0.0
208.0129815,-2.59874588,1.117725677,7.970625,8.457757015,1.0,0.0
208.0230185,-2.602937164,1.061742096,7.802524567,8.293489481,1.0,0.0
208.0330555,-2.560874634,1.001417542,7.715854797,8.191173984,1.0,0.0
208.0430925,-2.479893036,0.9903405762,7.802973633,8.247244476,1.0,0.0
208.0531295,-2.378853149,1.04138443,7.920030212,8.334884666,1.0,0.0
208.0631665,-2.160457306,1.168470154,8.07825119,8.443402191,1.0,0.0
208.0732035,-2.027683411,1.318757629,8.259374542,8.606270361,1.0,0.0
208.0832405,-2.105521545,1.372645569,8.413553925,8.780960453,1.0,0.0
208.0932775,-2.196532288,1.398691406,8.542286224,8.930383288,1.0,0.0
208.1033145,-2.181114349,1.546284485,8.723110199,9.123645492,1.0,0.0
208.1133515,-2.157463531,1.592987366,8.744964752,9.146948461,1.0,0.0
208.1233885,-2.102527771,1.548529816,8.655750275,9.041049742,1.0,0.0
208.1334255,-2.075284424,1.55391861,8.574469299,8.957845291,1.0,0.0
208.1434625,-2.092199249,1.513802032,8.477171631,8.861790629,1.0,0.0
208.1534995,-2.070644073,1.517095184,8.36265976,8.747755308,1.0,0.0
208.1635375,-2.067201233,1.536405029,8.400830383,8.786797624,1.0,0.0
208.1735745,-2.026485901,1.60541153,8.461005249,8.847180404,1.0,0.0
208.1836115,-2.052831116,1.667682037,8.612340546,9.009311219,1.0,0.0
208.1936485,-1.997745667,1.752705231,8.940907288,9.327528424,1.0,0.0
208.2036855,-1.954335938,1.847308502,9.214987335,9.599373378,1.0,0.0
208.2137225,-2.063608704,1.86976181,9.343569946,9.749707147,1.0,0.0
208.2237595,-2.08740921,1.835183716,9.358089752,9.762121711,1.0,0.0
208.2337965,-2.127675476,1.719324646,9.217382355,9.614739604,1.0,0.0
208.2438335,-2.15417038,1.595532074,8.974138184,9.365966515,1.0,0.0
208.2538705,-2.100581818,1.603764954,8.77684845,9.166110119,1.0,0.0
208.2639075,-1.999990997,1.609153748,8.780440979,9.14797702,1.0,0.0
208.2739445,-1.956880646,1.674118652,8.847950592,9.215111763,1.0,0.0
208.2839815,-1.963766327,1.749861145,9.050329742,9.424800298,1.0,0.0
208.2940185,-2.003733215,1.851200409,9.271120605,9.664138194,1.0,0.0
208.3040555,-2.129621429,1.911375275,9.472601624,9.8953941,1.0,0.0
208.3140925,-2.199226685,1.900597687,9.64624054,10.07466258,1.0,0.0
208.3241295,-2.099683685,1.997745667,9.780810699,10.20117235,1.0,0.0
208.3341665,-2.01960022,2.07453598,9.752519531,10.17320607,1.0,0.0
208.3442035,-1.901944885,2.020797729,9.729168091,10.11719969,1.0,0.0
208.3542405,-1.837578735,1.926643524,9.69997879,10.05873945,1.0,0.0
208.3642775,-1.85344574,1.759890289,9.643995209,9.976929314,1.0,0.0
208.3743155,-1.789678345,1.504521332,9.627379761,9.907218281,1.0,0.0
208.3843525,-1.712888031,1.114282837,9.69653595,9.909511646,1.0,0.0
208.3943895,-1.644929352,0.7024891663,9.861193542,10.02209667,1.0,0.0
208.4044265,-1.751058655,0.4297563171,10.05908203,10.21939471,1.0,0.0
208.4144635,-1.930086365,0.206869812,10.56667648,10.74349479,1.0,0.0
208.4245005,-2.206860809,0.03981719971,10.96978821,11.18964134,1.0,0.0
208.4345375,-2.341880035,0.01901046753,11.18459152,11.42715411,1.0,0.0
208.4445745,-2.258353729,0.1218466187,11.28503265,11.50942962,1.0,0.0
208.4546115,-2.237696686,0.1815724182,11.2751532,11.49649228,1.0,0.0
208.4646485,-2.196532288,0.2251318359,11.18803436,11.40383932,1.0,0.0
208.4746855,-2.100581818,0.1984872437,10.9778714,11.17879697,1.0,0.0
208.4847225,-1.940115509,0.1131646729,10.62056442,10.79690896,1.0,0.0
208.4947595,-1.647174683,0.117355957,10.32058823,10.45186578,1.0,0.0
208.5047965,-1.504371643,0.1347198486,9.973460083,10.08717946,1.0,0.0
208.5148335,-1.34091156,0.06331832886,9.525292053,9.61942003,1.0,0.0
208.5248705,-1.0975177,-0.03008743286,9.130413208,9.196189195,1.0,0.0
208.5349075,-0.8434959412,0.07244934082,8.920848999,8.960930821,1.0,0.0
208.5449445,-0.6460565186,0.3064128113,8.951684875,8.9801971,1.0,0.0
208.5549815,-0.6477030945,0.4525090027,9.148824921,9.182879784,1.0,0.0
208.5650185,-0.8322692871,0.4439767456,9.470056915,9.516919958,1.0,0.0
208.5750565,-0.9785151672,0.3776646423,9.670041046,9.726757751,1.0,0.0
208.5850935,-1.007255402,0.3562591553,9.805659027,9.863692665,1.0,0.0
208.5951305,-0.9729766846,0.3282673645,9.858499146,9.91183376,1.0,0.0
208.6051675,-0.8402027893,0.2082170105,9.911638641,9.949365588,1.0,0.0
208.6152045,-0.7444020081,-0.06631210327,9.861792297,9.890069715,1.0,0.0
208.6252415,-0.746048584,-0.3833528137,9.658964081,9.695315105,1.0,0.0
208.635279,-0.7093748474,-0.70907547,9.486522675,9.539397945,1.0,0.0
208.645316,-0.6674620056,-1.084943848,9.313332825,9.400041329,1.0,0.0
208.655353,-0.742306366,-1.291214905,9.232650604,9.352010043,1.0,0.0
208.66539,-0.8927435303,-1.3841716,9.28114975,9.426169037,1.0,0.0
208.675427,-1.073118439,-1.417851562,9.549242249,9.713388377,1.0,0.0
208.685464,-1.206640778,-1.370250549,10.01163071,10.1767538,1.0,0.0
208.695501,-1.226399689,-1.345252533,10.31744476,10.47680424,1.0,0.0
208.705538,-1.07416626,-1.36665802,10.36414764,10.50890783,1.0,0.0
208.715575,-0.9014254761,-1.423390045,10.37327866,10.50921106,1.0,0.0
208.725612,-0.6319857788,-1.464105377,10.28556107,10.40844739,1.0,0.0
208.735649,-0.3293151855,-1.558259583,10.10907806,10.23377158,1.0,0.0
208.745686,-0.2118095398,-1.663490753,10.11042526,10.24854935,1.0,0.0
208.755723,-0.3326083374,-1.647923126,10.18571869,10.32352382,1.0,0.0
208.76576,-0.4270619202,-1.606758728,10.09111542,10.22715336,1.0,0.0
208.775797,-0.6125262451,-1.571581879,9.933493195,10.07568087,1.0,0.0
208.785835,-0.9855505371,-1.532213745,9.82871109,9.996126776,1.0,0.0
208.795872,-1.229992218,-1.409768372,9.749076691,9.926974566,1.0,0.0
208.805909,-1.400038605,-1.241069183,9.583371277,9.76429034,1.0,0.0
208.815946,-1.534908142,-1.063238983,9.492659912,9.674554891,1.0,0.0
208.825983,-1.63340332,-1.040037231,9.670639801,9.862604018,1.0,0.0
208.83602,-1.710193634,-1.103205872,9.852062531,10.06006767,1.0,0.0
208.846057,-1.668879547,-1.146166534,10.03857468,10.2406952,1.0,0.0
208.856094,-1.51529892,-1.068029022,10.26176056,10.42787354,1.0,0.0
208.866131,-1.343605957,-0.9813592529,10.46114594,10.59263505,1.0,0.0
208.876168,-1.058598633,-0.9607022095,10.59676392,10.69275387,1.0,0.0
208.886205,-0.922381897,-1.033301239,10.70259384,10.79184946,1.0,0.0
208.896242,-1.023122406,-1.171912994,10.75498489,10.86691583,1.0,0.0
208.906279,-0.9306147766,-1.218915253,10.86171295,10.96943966,1.0,0.0
208.916316,-0.7694000244,-1.266366577,10.94344299,11.0433059,1.0,0.0
208.926353,-0.725690918,-1.303938446,11.06169708,11.16190061,1.0,0.0
208.93639,-0.7060816956,-1.146016846,11.2618309,11.34199018,1.0,0.0
208.946427,-0.6471043396,-0.9809101868,11.572435,11.63194655,1.0,0.0
208.956464,-0.6821315002,-0.7988887024,11.84950882,11.89598192,1.0,0.0
208.966501,-0.9392967224,-0.7586224365,11.94066925,12.00155692,1.0,0.0
208.976538,-1.029109955,-0.8873547363,11.85998703,11.93757756,1.0,0.0
208.986576,-1.052012329,-0.9776170349,11.63231049,11.72062764,1.0,0.0
208.996612,-1.003513184,-1.037791901,11.23099503,11.32339613,1.0,0.0
209.00665,-0.9728269958,-1.122515717,10.81575851,10.91728291,1.0,0.0
209.016687,-0.9247769165,-1.334474945,10.51922516,10.6437838,1.0,0.0
209.026724,-1.022373962,-1.569486237,10.28586044,10.45502083,1.0,0.0
209.036761,-1.108894043,-1.789828033,10.20652542,10.42143424,1.0,0.0
209.046798,-1.024918671,-1.934726715,10.08647507,10.32136643,1.0,0.0
209.056835,-0.9729766846,-1.953886871,10.05174728,10.28600899,1.0,0.0
209.066872,-0.9624984741,-1.920356598,10.12659164,10.35190954,1.0,0.0
209.076909,-0.8544232178,-1.776505737,10.17688705,10.36605237,1.0,0.0
209.086946,-0.6265969849,-1.631906433,10.46189438,10.60693058,1.0,0.0
209.096983,-0.2847079468,-1.53161499,10.73597443,10.84841233,1.0,0.0
209.10702,0.1808239746,-1.391057281,11.04074066,11.12949649,1.0,0.0
209.117057,0.6828799438,-1.362466736,11.38622223,11.48776294,1.0,0.0
209.127094,0.6670129395,-1.600022736,11.57153687,11.70066,1.0,0.0
209.137131,-0.04819976807,-2.214644623,11.3043425,11.51933737,1.0,0.0
209.147168,-0.3668870544,-2.649789734,10.65574127,10.98639221,1.0,0.0
209.157205,-0.2966830444,-2.758763123,9.973310394,10.35208747,1.0,0.0
209.167242,0.009430389404,-2.784359894,9.528285828,9.926780937,1.0,0.0
209.177279,0.4989125061,-2.670297089,9.55837326,9.936895874,1.0,0.0
209.187316,0.9319619751,-2.402503967,9.785600739,10.11921737,1.0,0.0
209.197353,1.229393463,-2.228116608,10.11611343,10.4312829,1.0,0.0
209.207391,1.636397095,-2.216440887,10.68807404,11.03745135,1.0,0.0
209.217428,2.014361115,-2.389780426,11.51630173,11.9328918,1.0,0.0
209.227465,2.386786652,-2.82103363,12.47535736,13.01113072,1.0,0.0
209.237502,2.750230865,-3.439248047,13.37378906,14.08014314,1.0,0.0
209.247539,3.00125885,-3.688779144,13.63155304,14.43723951,1.0,0.0
209.257576,3.148103485,-3.326682129,13.21856186,13.9895585,1.0,0.0
209.267613,3.2633638,-2.716550903,12.6141188,13.30958998,1.0,0.0
209.27765,3.48924408,-2.147883453,11.97330139,12.65496637,1.0,0.0
209.287687,3.692521362,-1.64986908,11.46570694,12.15809268,1.0,0.0
209.297724,3.60151062,-1.23089035,10.94853241,11.59121787,1.0,0.0
209.307761,3.298540649,-0.8795709229,10.51308792,11.05346249,1.0,0.0
209.317798,2.980901184,-0.6689588928,10.06192612,10.515495,1.0,0.0
209.327835,2.660267944,-0.5683680725,9.455088043,9.838635968,1.0,0.0
209.337872,2.322270813,-0.6010002136,8.736432495,9.059767973,1.0,0.0
209.347909,2.199526062,-0.6641688538,7.956703949,8.281797685,1.0,0.0
209.357946,2.117197266,-0.6325845337,7.219187622,7.549791876,1.0,0.0
209.367983,2.022294617,-0.5554948425,6.75141037,7.069638747,1.0,0.0
209.37802,1.952389984,-0.4819976807,6.622378693,6.920986054,1.0,0.0
209.388057,1.82410675,-0.5170248413,6.700366516,6.963446817,1.0,0.0
209.398095,1.596879272,-0.656534729,7.057074738,7.265216109,1.0,0.0
209.408132,1.568438416,-0.7658074951,7.474855957,7.67593198,1.0,0.0
209.418169,1.555565186,-0.6861730957,7.82901947,8.011501883,1.0,0.0
209.428206,1.47084137,-0.7484436035,8.318950653,8.481066096,1.0,0.0
209.438243,1.359922028,-0.9092092896,8.810378723,8.960961037,1.0,0.0
209.44828,1.35962265,-0.9379495239,9.159303131,9.307048775,1.0,0.0
209.458317,1.241817627,-0.8723858643,9.486971741,9.607590797,1.0,0.0
209.468354,1.044228516,-0.9184899902,9.736951904,9.835764812,1.0,0.0
209.478391,0.9800120544,-1.025816803,9.999655609,10.09979386,1.0,0.0
209.488428,0.8737330627,-1.130748596,10.23406815,10.33335147,1.0,0.0
209.498465,0.6480024719,-1.174158325,10.17464172,10.26264533,1.0,0.0
209.508502,0.6062393188,-1.076710968,10.14904495,10.22398876,1.0,0.0
209.518539,0.6545887756,-0.8397537231,10.26445496,10.31953043,1.0,0.0
209.528576,0.6107299805,-0.5590873718,10.3514241,10.38448606,1.0,0.0
209.538613,0.532742157,-0.3098556519,10.3102597,10.32866303,1.0,0.0
209.54865,0.6068380737,-0.04685256958,10.25442581,10.27247275,1.0,0.0
209.558687,0.6524931335,0.266894989,10.18167709,10.20605353,1.0,0.0
209.568724,0.5903723145,0.5592370605,10.04037094,10.07324844,1.0,0.0
209.578761,0.5522016907,0.8104147339,9.951904907,10.0001055,1.0,0.0
209.588798,0.4760101318,1.149908752,9.790390778,9.869175617,1.0,0.0
209.598835,0.3354524231,1.328637085,9.538015594,9.635950722,1.0,0.0
209.608873,0.1531315613,1.339564362,9.312883759,9.409977994,1.0,0.0
209.61891,-0.1360670471,1.314865723,9.191186829,9.285757989,1.0,0.0
209.628947,-0.3766168213,1.198856964,9.194180603,9.279658141,1.0,0.0
209.6389837,-0.4611909485,1.077908478,9.191486206,9.265959338,1.0,0.0
209.6490208,-0.5409750366,1.008003845,9.217681732,9.288400414,1.0,0.0
209.6590578,-0.6113287354,1.002465363,9.321565704,9.395224681,1.0,0.0
209.6690947,-0.6288423157,1.065484314,9.485474854,9.565821067,1.0,0.0
209.6791318,-0.6198609924,1.115031281,9.724827118,9.808148902,1.0,0.0
209.6891688,-0.6219566345,1.19346817,9.88484436,9.97603851,1.0,0.0
209.6992057,-0.6041436768,1.365161133,9.990823975,10.10174332,1.0,0.0
209.7092427,-0.5854325867,1.490001526,10.36833893,10.4912005,1.0,0.0
209.7192798,-0.4544549561,1.48835495,10.77025314,10.88209918,1.0,0.0
209.7293167,-0.2591111755,1.436113586,10.88072342,10.97814661,1.0,0.0
209.7393537,-0.0556842041,1.445993042,10.58598633,10.68443275,1.0,0.0
209.7493908,0.1809736633,1.38536911,10.34109558,10.43504944,1.0,0.0
209.7594278,0.5054988098,1.200952606,10.34289185,10.42464522,1.0,0.0
209.7694647,0.8358618164,1.002465363,10.35666321,10.43858585,1.0,0.0
209.7795018,1.082548828,0.8514294434,10.26161087,10.35362264,1.0,0.0
209.7895388,1.148860931,0.6071374512,10.13542328,10.21838061,1.0,0.0
209.7995757,1.247655487,0.3342549133,10.14784744,10.22972034,1.0,0.0
209.8096138,1.486408997,0.1080752563,10.28092072,10.38837922,1.0,0.0
209.8196507,1.653012543,-0.0375718689,10.38824753,10.51900893,1.0,0.0
209.8296877,1.617686005,-0.1002914429,10.68493057,10.80716002,1.0,0.0
209.8397248,1.476230164,-0.2580633545,11.00736008,11.1089076,1.0,0.0
209.8497617,1.403780823,-0.4947212219,11.48591492,11.58195109,1.0,0.0
209.8597987,1.31980545,-0.5745053101,11.92345505,12.01002594,1.0,0.0
209.8698358,1.054407349,-0.5649252319,12.22088654,12.27929082,1.0,0.0
209.8798728,0.6716532898,-0.5251080322,12.30695755,12.33645252,1.0,0.0
209.8899097,0.5105882263,-0.4646337891,12.27133163,12.29073492,1.0,0.0
209.8999468,0.477507019,-0.4526586914,12.2559137,12.27356238,1.0,0.0
209.9099838,0.4489164734,-0.5093907166,12.29079117,12.30953096,1.0,0.0
209.9200207,0.2856060791,-0.4927752686,12.26773911,12.28095359,1.0,0.0
209.9300578,-0.1410067749,-0.3725752258,12.086017,12.09258046,1.0,0.0
209.9400948,-0.6509962463,-0.3065625,11.88079376,11.90256431,1.0,0.0
209.9501317,-1.042881317,-0.3032693481,11.68604874,11.73640954,1.0,0.0
209.9601688,-1.442849579,-0.1851649475,11.09941864,11.19433764,1.0,0.0
209.9702058,-1.820514221,0.04954696655,10.08048752,10.24367881,1.0,0.0
209.9802427,-2.078427887,0.3385958862,8.881780243,9.128007994,1.0,0.0
209.9902797,-2.073787537,0.6942562866,7.675139465,7.980623557,1.0,0.0
295.0043485,-0.2080673218,-0.1791773987,11.05406296,11.05747279,1.0,1.0
295.0143855,-0.2484832764,-0.2270777893,10.9432933,10.94846914,1.0,1.0
295.0244225,-0.2329156494,-0.3784130859,10.69630692,10.70553258,1.0,1.0
295.0344595,-0.2154020691,-0.3134481812,10.19574783,10.2028389,1.0,1.0
295.0444965,-0.4114942932,-0.273331604,9.795180817,9.807629935,1.0,1.0
295.0545335,-0.5763015747,-0.299078064,9.011710052,9.035069965,1.0,1.0
295.0645705,-0.1154100037,-0.08367599487,8.440647583,8.441851264,1.0,1.0
295.0746085,0.2332150269,0.06122268677,8.406518555,8.409975724,1.0,1.0
295.0846455,0.3415896606,-0.08487350464,8.547225952,8.554470088,1.0,1.0
295.0946825,0.4743635559,-0.1719923401,9.218280487,9.232079792,1.0,1.0
295.1047195,0.176333313,-0.03876937866,10.05923172,10.06085182,1.0,1.0
295.1147565,-0.00643661499,0.06466552734,10.34648438,10.34668845,1.0,1.0
295.1247935,-0.1847158813,0.1757345581,10.48524582,10.48834508,1.0,1.0
295.1348305,-0.4321513367,0.2043251038,10.51293823,10.52380035,1.0,1.0
295.1448675,-0.570763092,0.2995271301,10.89868607,10.91773076,1.0,1.0
295.1549045,-0.726738739,0.3866459656,11.08894043,11.11945341,1.0,1.0
295.1649425,-0.8056246948,0.3957769775,10.79390396,10.83116029,1.0,1.0
295.1749795,-0.7915539551,0.4541555786,10.30936157,10.34967396,1.0,1.0
295.1850165,-1.015338593,0.4233197021,9.912686462,9.973538235,1.0,1.0
295.1950535,-1.089434509,0.2664459229,9.707612915,9.772185502,1.0,1.0
295.2050905,-0.9415420532,0.1511856079,9.554331665,9.601802544,1.0,1.0
295.2151275,-0.9208850098,0.3903881836,9.497000885,9.549526582,1.0,1.0
295.2251645,-0.9086105347,0.4026626587,9.768536224,9.818961772,1.0,1.0
295.2352015,-0.7512876892,0.4254153442,10.01686981,10.05400876,1.0,1.0
295.2452385,-0.6821315002,0.500559082,9.989327087,10.02509444,1.0,1.0
295.2552765,-0.4996609497,0.4906796265,9.838889923,9.863781348,1.0,1.0
295.2653135,-0.4399351501,0.5279521179,9.614057465,9.638587931,1.0,1.0
295.2753505,-0.4695735168,0.4863386536,9.624685364,9.648398464,1.0,1.0
295.2853875,-0.6011499023,0.2258802795,9.880952454,9.901799054,1.0,1.0
295.2954245,-0.7652087402,-0.03218307495,10.0953067,10.12431714,1.0,1.0
295.3054615,-0.9828561401,-0.4797523499,10.52985306,10.58649961,1.0,1.0
295.3154985,-1.279239807,-1.194366302,11.3600267,11.49404942,1.0,1.0
295.3255355,-1.435065765,-1.517244873,11.72856033,11.91304215,1.0,1.0
295.3355725,-1.561103668,-1.408570862,11.6864978,11.87414618,1.0,1.0
295.3456095,-1.852996674,-1.48715744,11.93992081,12.17402739,1.0,1.0
295.3556475,-2.238594818,-1.704954529,12.40605148,12.72117487,1.0,1.0
295.3656845,-2.581531677,-1.532213745,12.60468842,12.95724333,1.0,1.0
295.3757215,-2.881807251,-1.312770081,12.9075087,13.29029567,1.0,1.0
295.3857585,-3.005001068,-1.017733612,13.27484482,13.64871122,1.0,1.0
295.3957955,-2.915487213,-0.577199707,13.15689011,13.48840178,1.0,1.0
295.4058325,-3.074306946,-0.2647993469,12.3142923,12.69500991,1.0,1.0
295.4158695,-3.095413055,-0.02634521484,10.86560486,11.29794871,1.0,1.0
295.4259065,-2.490071869,0.4149371338,9.479337616,9.809713165,1.0,1.0
295.4359435,-2.204316101,0.3089575195,9.069938965,9.33907153,1.0,1.0
295.4459815,-1.568887482,0.8619076538,6.026767273,6.286987871,1.0,1.0
295.4560185,-1.544338531,1.167871399,4.761298828,5.139929147,1.0,1.0
295.4660555,-1.302441559,0.890198822,4.860991516,5.110581814,1.0,1.0
295.4760925,-1.309776306,0.8640032959,5.463638306,5.684484075,1.0,1.0
295.4861295,-1.427281952,0.9174421692,6.707850952,6.919111092,1.0,1.0
295.4961665,-1.616488495,0.9214837646,7.807464294,8.026123977,1.0,1.0
295.5062035,-1.745969238,0.8063731384,8.165519714,8.388942629,1.0,1.0
295.5162405,-1.718127136,0.5866300964,7.44521759,7.663377891,1.0,1.0
295.5262775,-1.899699554,0.2296224976,6.390660553,6.67099147,1.0,1.0
295.5363155,-2.142344971,-0.1194515991,6.018983459,6.389997852,1.0,1.0
295.5463525,-2.19862793,-0.3823049927,6.410419464,6.787753648,1.0,1.0
295.5563895,-2.215692444,-0.3855981445,7.200626221,7.54367264,1.0,1.0
295.5664265,-2.409838715,-0.4345463562,8.235274658,8.591618117,1.0,1.0
295.5764635,-2.661764832,-0.4212240601,9.344917145,9.725733811,1.0,1.0
295.5865005,-2.981649628,-0.3077600098,10.29289581,10.7204783,1.0,1.0
295.5965375,-3.234473877,-0.1651066589,10.91709778,11.38736604,1.0,1.0
295.6065745,-3.382066956,-0.03966751099,11.03325623,11.54004737,1.0,1.0
295.6166115,-3.511248322,-0.08307723999,10.93700638,11.48711779,1.0,1.0
295.6266485,-3.596121826,-0.08502319336,10.74630295,11.33235846,1.0,1.0
295.6366865,-3.329975281,-0.01511856079,10.40546173,10.92531912,1.0,1.0
295.6467235,-3.076552277,-0.02499801636,10.1072818,10.56517601,1.0,1.0
295.6567605,-2.783461761,0.0007484436035,9.922116852,10.30514739,1.0,1.0
295.6667975,-2.477348328,0.04146377563,9.557624817,9.873558939,1.0,1.0
295.6768345,-2.277663574,0.06915618896,9.171876984,9.450706923,1.0,1.0
295.6868715,-2.109263763,0.1574725342,8.868607635,9.1173457,1.0,1.0
295.6969085,-1.947300568,0.2185455322,8.724607086,8.941952273,1.0,1.0
295.7069455,-1.883982239,0.2677931213,8.634494476,8.841696505,1.0,1.0
295.7169826,-1.813778229,0.289947052,8.528963928,8.724510671,1.0,1.0
295.7270206,-1.894161072,0.3210823059,8.427175598,8.643392191,1.0,1.0
295.7370576,-1.953587494,0.3082090759,8.297694855,8.530136976,1.0,1.0
295.7470946,-1.983674927,0.2321672058,8.18363205,8.423817504,1.0,1.0
295.7571316,-2.074685669,0.126486969,8.055947571,8.319772283,1.0,1.0
295.7671686,-2.196382599,0.04086502075,7.863148499,8.16424343,1.0,1.0
295.7772056,-2.301015015,-0.0002993774414,7.69804184,8.034582649,1.0,1.0
295.7872426,-2.378853149,-0.05897735596,7.656428375,8.017687703,1.0,1.0
295.7972796,-2.392474823,-0.04041595459,7.811206512,8.169486912,1.0,1.0
295.8073166,-2.410138092,0.02634521484,8.035140839,8.388858563,1.0,1.0
295.8173546,-2.426005096,0.07274871826,8.263715515,8.612768847,1.0,1.0
295.8273916,-2.37645813,0.1258882141,8.517288208,8.843506064,1.0,1.0
295.8374286,-2.294129333,0.1507365417,8.789272614,9.084991138,1.0,1.0
295.8474656,-2.296973419,0.1637594604,8.994944916,9.2850384,1.0,1.0
295.8575026,-2.231559448,0.1715432739,8.952882385,9.228401144,1.0,1.0
295.8675396,-2.145638123,0.2204914856,8.938961334,9.195510273,1.0,1.0
295.8775766,-2.16000824,0.2023791504,9.23309967,9.484551779,1.0,1.0
295.8876136,-2.125729523,0.2171983337,9.435029755,9.673969588,1.0,1.0
295.8976506,-2.198927307,0.2029779053,9.395960999,9.651972048,1.0,1.0
295.9076876,-2.195185089,0.1667532349,9.351054382,9.606709233,1.0,1.0
295.9177256,-2.166295166,0.2580633545,9.263486481,9.516911958,1.0,1.0
295.9277626,-2.210752716,0.2703378296,9.255552979,9.51975688,1.0,1.0
295.9377996,-2.236798553,0.272283783,9.167236633,9.440107718,1.0,1.0
295.9478366,-2.271676025,0.2436932373,9.030121765,9.314665719,1.0,1.0
295.9578736,-2.235002289,0.2323168945,8.965456238,9.242759973,1.0,1.0
295.9679106,-2.170636139,0.3152444458,8.933722229,9.199045232,1.0,1.0
295.9779476,-2.142943726,0.3647914124,9.015302582,9.273670321,1.0,1.0
295.9879846,-2.104922791,0.3379971313,9.14418457,9.389411774,1.0,1.0
295.9980216,-2.010918274,0.346230011,9.129215698,9.354477366,1.0,1.0
296.0080596,-1.921404419,0.2802172852,9.101223907,9.306051433,1.0,1.0
296.0180966,-1.740879822,0.2335144043,9.08341095,9.251678011,1.0,1.0
296.0281336,-1.631008301,0.2508782959,9.127718811,9.275687505,1.0,1.0
296.0381706,-1.634301453,0.2001338196,9.187294922,9.333669309,1.0,1.0
296.0482076,-1.821412354,0.2017803955,9.124725037,9.306925662,1.0,1.0
296.0582446,-1.99026123,0.1300794983,9.048084412,9.265305821,1.0,1.0
296.0682816,-2.102228394,0.2550695801,9.102720795,9.345798552,1.0,1.0
296.0783186,-2.289339294,0.4547543335,9.470206604,9.753598773,1.0,1.0
296.0883556,-2.613115997,0.53004776,9.915979614,10.26820226,1.0,1.0
296.0983936,-2.851270752,0.6873706055,10.24379791,10.65540327,1.0,1.0
296.1084306,-3.027753754,0.8234376526,10.45680496,10.91742242,1.0,1.0
296.1184676,-3.052302704,0.7833210754,10.44602737,10.91098674,1.0,1.0
296.1285046,-3.011737061,0.6547384644,10.2213446,10.67591346,1.0,1.0
296.1385416,-3.014431458,0.2415975952,10.22104523,10.65903053,1.0,1.0
296.1485786,-2.992427216,-0.01826202393,10.45186523,10.87181866,1.0,1.0
296.1586156,-2.92641449,-0.04565505981,10.82818268,11.21675204,1.0,1.0
296.1686526,-2.961591339,-0.08143066406,11.28203888,11.66456409,1.0,1.0
296.1786896,-3.022065582,0.07604187012,11.54234756,11.93165747,1.0,1.0
296.1887276,-3.066523132,0.1610650635,11.83064804,12.22267316,1.0,1.0
296.1987646,-3.050805817,0.3212319946,11.95129715,12.33872399,1.0,1.0
296.2088016,-2.985990601,0.6574328613,11.82091827,12.20993312,1.0,1.0
296.2188386,-2.761307831,0.886456604,11.60057648,11.95759177,1.0,1.0
296.2288756,-2.36238739,1.126108246,11.01619171,11.3227856,1.0,1.0
296.2389126,-1.917063446,1.342857513,10.42986099,10.68926559,1.0,1.0
296.2489496,-1.660496979,1.567989349,10.32103729,10.57069778,1.0,1.0
296.2589866,-1.410816193,1.716779938,10.49332901,10.72602859,1.0,1.0
296.2690236,-1.135838013,1.728156281,10.41324554,10.61660656,1.0,1.0
296.2790616,-0.9380992126,1.87215683,9.870474243,10.09015674,1.0,1.0
296.2890986,-0.8213420105,1.794767761,9.257199554,9.465280641,1.0,1.0
296.2991356,-0.8434959412,1.650467834,8.974886627,9.164284994,1.0,1.0
296.3091726,-0.9846524048,1.613045654,9.095984802,9.290231222,1.0,1.0
296.3192096,-1.138981476,1.533411255,9.443861389,9.63509973,1.0,1.0
296.3292466,-1.297202454,1.368753662,9.560618591,9.744826763,1.0,1.0
296.3392836,-1.403182068,1.23328537,9.567653961,9.748328833,1.0,1.0
296.3493206,-1.600022736,1.186732178,9.653724976,9.857119859,1.0,1.0
296.3593576,-1.874402161,1.099313965,9.8790065,10.11516901,1.0,1.0
296.3693956,-2.05238205,1.149309998,10.42761566,10.68963769,1.0,1.0
296.3794326,-2.24772583,1.2063414,11.01813766,11.30959277,1.0,1.0
296.3894696,-2.391277313,1.013093262,11.23518631,11.53143428,1.0,1.0
296.3995066,-2.495310974,0.7888595581,10.9672435,11.27516325,1.0,1.0
296.4095436,-2.491868134,0.7667056274,10.29618896,10.62114643,1.0,1.0
296.4195806,-2.394271088,0.629740448,10.02570145,10.32684834,1.0,1.0
296.4296176,-2.199226685,0.5174739075,10.21969803,10.46645141,1.0,1.0
296.4396546,-1.91197403,0.4162843323,10.45291306,10.6344877,1.0,1.0
296.4496916,-1.607207794,0.3442840576,10.43345352,10.5621305,1.0,1.0
296.4597286,-1.367556152,0.3124003601,10.44692551,10.54068576,1.0,1.0
296.4697666,-1.14317276,0.2820135498,10.75318863,10.81746002,1.0,1.0
296.4798036,-1.02611618,0.2348616028,10.97263229,11.02300929,1.0,1.0
296.4898406,-0.9165440369,0.1941462708,10.92847412,10.96855927,1.0,1.0
296.4998776,-0.920735321,0.1450483704,10.73926758,10.77964103,1.0,1.0
296.5099146,-1.026864624,0.09011260986,10.55964111,10.60983467,1.0,1.0
296.5199516,-1.177601166,0.08217910767,10.4629422,10.52932369,1.0,1.0
296.5299886,-1.232836304,0.04296066284,10.50829788,10.58045629,1.0,1.0
296.5400256,-1.22041214,0.05164260864,10.70618637,10.7756438,1.0,1.0
296.5500626,-1.180295563,0.1005908203,10.8358168,10.90037348,1.0,1.0
296.5601006,-1.172511749,0.149539032,10.97173416,11.03522072,1.0,1.0
296.5701376,-1.29765152,0.1306782532,11.11393845,11.19020125,1.0,1.0
296.5801746,-1.470392303,0.02574645996,10.92697723,11.02549536,1.0,1.0
296.5902116,-1.563648376,-0.0904119873,10.577005,10.69234331,1.0,1.0
296.6002486,-1.632355499,-0.1148112488,10.32822235,10.45705231,1.0,1.0
296.6102856,-1.630259857,-0.2155517578,10.15203873,10.28436192,1.0,1.0
296.6203226,-1.62412262,-0.2586621094,10.0887204,10.22188631,1.0,1.0
296.6303596,-1.606758728,-0.3302133179,9.938881989,10.07333558,1.0,1.0
296.6403966,-1.528621216,-0.4439767456,9.701775055,9.831492124,1.0,1.0
296.6504346,-1.39000946,-0.5749543762,9.493108978,9.611546021,1.0,1.0
296.6604716,-1.173260193,-0.660276947,9.383836212,9.47992021,1.0,1.0
296.6705086,-1.006506958,-0.7640112305,9.382339325,9.467051316,1.0,1.0
296.6805456,-0.8454418945,-0.841999054,9.398505707,9.473945531,1.0,1.0
296.6905826,-0.7786807251,-0.8764274597,9.430988159,9.503578611,1.0,1.0
296.7006196,-0.7280859375,-0.9250762939,9.508975983,9.581570827,1.0,1.0
296.7106566,-0.6650669861,-1.027613068,9.430988159,9.510091502,1.0,1.0
296.7206935,-0.6153703308,-1.049317932,9.20974823,9.289736876,1.0,1.0
296.7307305,-0.5180726624,-1.057401123,9.081614685,9.157631883,1.0,1.0
296.7407685,-0.3824546814,-1.131347351,8.928034058,9.007552972,1.0,1.0
296.7508055,-0.2603086853,-1.122964783,8.828790436,8.903726808,1.0,1.0
296.7608425,-0.2362088013,-1.106648712,8.747060394,8.819950766,1.0,1.0
296.7708795,-0.2417472839,-1.147064667,8.615484009,8.694869971,1.0,1.0
296.7809165,-0.1621128845,-1.173409882,8.493936768,8.576137426,1.0,1.0
296.7909535,-0.1369651794,-1.128203888,8.455167389,8.531205017,1.0,1.0
296.8009905,-0.228874054,-1.040037231,8.506061554,8.572464286,1.0,1.0
296.8110275,-0.3640429688,-0.9505233765,8.6434758,8.703200323,1.0,1.0
296.8210645,-0.5581892395,-0.9316625977,8.754095764,8.821210975,1.0,1.0
296.8311025,-0.6613247681,-1.020727386,8.737779694,8.822019543,1.0,1.0
296.8411395,-0.7752378845,-0.9969268799,8.556057587,8.648755888,1.0,1.0
296.8511765,-0.9653425598,-1.060245209,8.420140228,8.541356311,1.0,1.0
296.8612135,-1.143023071,-1.069974976,8.481213226,8.624518884,1.0,1.0
296.8712505,-1.345102844,-1.017733612,8.59198288,8.755983849,1.0,1.0
296.8812875,-1.557211761,-0.9645941162,8.764274597,8.953650624,1.0,1.0
296.8913245,-1.736987915,-0.8806187439,8.97219223,9.181113756,1.0,1.0
296.9013615,-1.813478851,-0.830173645,9.207951965,9.421479354,1.0,1.0
296.9113985,-1.830243988,-0.7153623962,9.324858856,9.529665739,1.0,1.0
296.9214355,-1.783690796,-0.6448590088,9.391919403,9.581521073,1.0,1.0
296.9314735,-1.708397369,-0.6322851562,9.472601624,9.646169582,1.0,1.0
296.9415105,-1.562151489,-0.6512956238,9.513766022,9.663138578,1.0,1.0
296.9515475,-1.4929953,-0.6325845337,9.538614349,9.675451507,1.0,1.0
296.9615845,-1.440903625,-0.6394702148,9.557774506,9.686907603,1.0,1.0
296.9716215,-1.357527008,-0.7080276489,9.602232056,9.723530387,1.0,1.0
296.9816585,-1.242865448,-0.7696994019,9.606123962,9.716726263,1.0,1.0
296.9916955,-1.199605408,-0.7189549255,9.596843262,9.698213748,1.0,1.0
297.0017325,-1.132844238,-0.7198530579,9.889634399,9.980300248,1.0,1.0
297.0117695,-1.211879883,-0.6095324707,10.30561935,10.39451649,1.0,1.0
297.0218075,-1.295555878,-0.3847000122,10.67505112,10.76025908,1.0,1.0
297.0318445,-1.30348938,-0.3914360046,11.04927292,11.13277767,1.0,1.0
297.0418815,-1.288370819,-0.7780819702,11.38113281,11.48022191,1.0,1.0
297.0519185,-1.511856079,-1.080453186,11.33338211,11.48471323,1.0,1.0
297.0619555,-1.850152588,-1.232387238,11.17725677,11.39617971,1.0,1.0
297.0719925,-2.063908081,-1.739981689,11.48726212,11.80018829,1.0,1.0
297.0820295,-2.198478241,-2.116448822,11.73664352,12.1268901,1.0,1.0
297.0920665,-2.401755524,-1.994602203,11.53935379,11.95422743,1.0,1.0
297.1021035,-2.391726379,-1.75390274,11.44205612,11.82020212,1.0,1.0
297.1121415,-2.331401825,-1.436412964,11.4808255,11.80288401,1.0,1.0
297.1221785,-2.321522369,-1.002165985,11.527229,11.80130549,1.0,1.0
297.1322155,-2.189646606,-0.5291496277,11.20869141,11.43281744,1.0,1.0
297.1422525,-2.063908081,-0.07798782349,10.33855087,10.54283799,1.0,1.0
297.1522895,-2.044598236,0.35102005,9.200018463,9.431009317,1.0,1.0
297.1623265,-1.932780762,0.5586383057,8.360863495,8.59952072,1.0,1.0
297.1723635,-1.748364258,0.6306385803,7.785160675,8.003949608,1.0,1.0
297.1824005,-1.619781647,0.8716374207,7.346572723,7.573346364,1.0,1.0
297.1924375,-1.635948029,1.068627777,7.152426453,7.414546206,1.0,1.0
297.2024755,-1.689536591,1.120569763,7.217690735,7.497017409,1.0,1.0
297.2125125,-1.703457642,1.075513458,7.361990662,7.632653774,1.0,1.0
297.2225495,-1.782193909,1.040635986,7.30480957,7.590743128,1.0,1.0
297.2325865,-1.959275665,1.035247192,7.356152802,7.682674139,1.0,1.0
297.2426235,-2.158661041,0.9395960999,7.729326782,8.079922699,1.0,1.0
297.2526605,-2.298919373,0.7132667542,8.427025909,8.764048461,1.0,1.0
297.2626975,-2.506537628,0.6333329773,9.044491882,9.406735616,1.0,1.0
297.2727345,-2.812501373,0.5812413025,9.531578979,9.954848229,1.0,1.0
297.2827715,-3.264411621,0.5619314575,10.1643132,10.69043559,1.0,1.0
297.2928095,-3.821702728,0.6403683472,10.9394014,11.60542917,1.0,1.0
297.3028465,-4.267176361,0.7538323975,11.89396637,12.6587319,1.0,1.0
297.3128835,-4.636458435,0.9358538818,12.72848099,13.57891003,1.0,1.0
297.3229205,-4.6475354,0.9746232605,13.15629135,13.98704679,1.0,1.0
297.3329575,-4.41821228,1.066382446,13.05255707,13.82125238,1.0,1.0
297.3429945,-4.040996704,1.021026764,12.71261398,13.37844177,1.0,1.0
297.3530315,-3.67875,0.8187973022,12.1364621,12.70816048,1.0,1.0
297.3630685,-3.241509247,0.572409668,11.49818939,11.96007501,1.0,1.0
297.3731055,-2.699486389,0.3255729675,10.92248657,11.25584015,1.0,1.0
297.3831425,-2.248025208,0.0643661499,10.3315155,10.57345605,1.0,1.0
297.3931805,-1.780547333,-0.189206543,9.834848328,9.996518871,1.0,1.0
297.4032175,-1.394051056,-0.2791694641,9.558223572,9.663382006,1.0,1.0
297.4132545,-1.214873657,-0.3969744873,9.490863647,9.576533795,1.0,1.0
297.4232915,-1.124311981,-0.5060975647,9.528285828,9.607728295,1.0,1.0
297.4333285,-1.161135406,-0.6328839111,9.516161041,9.60760628,1.0,1.0
297.4433655,-1.169368286,-0.8810678101,9.333091736,9.447237904,1.0,1.0
297.4534025,-1.158740387,-1.155896301,8.861272888,9.011156016,1.0,1.0
297.4634395,-1.229992218,-1.494641876,8.186476135,8.412207006,1.0,1.0
297.4734765,-1.371897125,-1.824256439,7.242089996,7.593278659,1.0,1.0
297.4835145,-1.406026154,-2.326611786,6.249204712,6.814880151,1.0,1.0
297.4935515,-1.181044006,-2.89827301,5.343288574,6.192381139,1.0,1.0
297.5035885,-0.7140151978,-2.92057663,5.393583984,6.174976417,1.0,1.0
297.5136255,-0.4553530884,-2.097438354,8.077951813,8.35822347,1.0,1.0
297.5236625,-0.8512797546,-1.688339081,11.48262177,11.63725778,1.0,1.0
297.5336995,-0.84948349,-1.656305695,13.18967194,13.32037599,1.0,1.0
297.5437365,-0.3486250305,-1.623972931,13.10195435,13.20681775,1.0,1.0
297.5537735,0.01975891113,-1.895208893,12.08990891,12.23756939,1.0,1.0
297.5638105,0.03502716064,-2.293231201,10.90287735,11.1414932,1.0,1.0
297.5738485,-0.6785389709,-2.446961517,10.19260437,10.5041525,1.0,1.0
297.5838855,-1.754800873,-2.50279541,10.08976822,10.54261513,1.0,1.0
297.5939225,-2.395618286,-2.587219849,10.32403107,10.90955137,1.0,1.0
297.6039595,-2.519560547,-2.627635803,10.22358994,10.85239358,1.0,1.0
297.6139965,-2.670895844,-2.497556305,9.858648834,10.51496215,1.0,1.0
297.6240335,-2.727627869,-2.182461548,9.279203796,9.914974296,1.0,1.0
297.6340705,-2.764750671,-2.012864227,8.802145844,9.443158376,1.0,1.0
297.6441075,-2.891686707,-1.996099091,8.586594086,9.277707776,1.0,1.0
297.6541445,-2.903212738,-1.981429596,8.298443298,9.012151165,1.0,1.0
297.6641825,-2.641407166,-1.964215393,7.936945038,8.592454274,1.0,1.0
297.6742195,-2.191143494,-2.14354248,7.505093079,8.106929523,1.0,1.0
297.6842565,-1.869163055,-2.389780426,6.782246246,7.429918247,1.0,1.0
297.6942935,-1.367256775,-2.498903503,5.981710968,6.625313269,1.0,1.0
297.7043305,-0.7283853149,-2.549198914,5.712570648,6.297811023,1.0,1.0
297.7143675,-0.2836601257,-2.769840088,5.734125824,6.37437653,1.0,1.0
297.7244047,0.160765686,-3.126997375,5.243745575,6.107440204,1.0,1.0
297.7344417,0.6300398254,-3.555556183,4.736899567,5.956269592,1.0,1.0
297.7444787,1.102457428,-3.524121552,5.410798187,6.550693254,1.0,1.0
297.7545167,1.274000702,-2.902763672,7.418722687,8.067624249,1.0,1.0
297.7645537,1.093925171,-2.443069611,9.407936096,9.78133544,1.0,1.0
297.7745907,1.011296997,-2.373015289,10.15338593,10.47593284,1.0,1.0
297.7846277,0.7991880798,-2.542462921,10.13497421,10.47952869,1.0,1.0
297.7946647,0.4213737488,-2.744692383,9.314829712,9.719925137,1.0,1.0
297.8047017,0.2005828857,-3.008892975,7.906408539,8.46197178,1.0,1.0
297.8147387,-0.06511459351,-3.484304352,7.003486176,7.822623303,1.0,1.0
297.8247757,-0.4697232056,-3.8273909,6.781198425,7.800911041,1.0,1.0
297.8348127,-0.4215234375,-4.05087616,7.039860535,8.133075434,1.0,1.0
297.8448497,-0.2302212524,-4.179907837,7.723937988,8.785433933,1.0,1.0
297.8548877,-0.1332229614,-4.496948547,8.727451172,9.818793131,1.0,1.0
297.8649247,0.02799179077,-4.741988983,9.702224121,10.79909237,1.0,1.0
297.8749617,0.001347198486,-4.434079285,10.80153809,11.67622738,1.0,1.0
297.8849987,-0.1785786438,-3.776197357,12.24872864,12.81884979,1.0,1.0
297.8950357,-0.5987548828,-2.565365295,13.28188019,13.54060367,1.0,1.0
297.9050727,-1.586401062,-1.504970398,14.29078217,14.45711102,1.0,1.0
297.9151097,-2.743195496,-0.6728507996,15.61163544,15.8650878,1.0,1.0
297.9251467,-3.887565765,0.5276527405,16.54479492,17.00358268,1.0,1.0
297.9351837,-4.627028046,1.711540833,17.45924332,18.14287567,1.0,1.0
297.9452217,-4.645888824,2.351011047,19.20311691,19.89651314,1.0,1.0
297.9552587,-4.085454254,2.445614319,22.18910751,22.69423843,1.0,1.0
297.9652957,-3.303630066,2.296075287,26.31228333,26.61808008,1.0,1.0
297.9753327,-3.305875397,2.158361664,29.47550537,29.73874164,1.0,1.0
297.9853697,-2.904559937,0.9026229858,32.40221924,32.54466175,1.0,1.0
297.9954067,-1.517693939,-0.5427713013,35.59657654,35.63305006,1.0,1.0
298.0054437,-0.7426057434,-2.260149994,38.81248901,38.885332,1.0,1.0
298.0154807,0.09520202637,-4.822970581,42.56413742,42.83661872,1.0,1.0
298.0255177,-0.8964857483,-6.124364319,43.91163528,44.34572401,1.0,1.0
298.0355557,-3.675606537,-6.318660278,42.14036865,42.76968811,1.0,1.0
298.0455927,-3.091820526,-4.972359924,39.40301102,39.8356749,1.0,1.0
298.0556297,-0.5063969421,-4.541855164,37.31649994,37.59529298,1.0,1.0
298.0656667,2.512375488,-5.433251495,35.50541611,36.0064831,1.0,1.0
298.0757037,4.918471985,-5.514532471,32.69171722,33.51641106,1.0,1.0
298.0857407,6.748566284,-6.07631424,30.7279509,32.04171824,1.0,1.0
298.0957777,8.314909058,-6.500083008,29.3743158,31.21280539,1.0,1.0
298.1058147,8.26311676,-6.076014862,27.84344925,29.67245728,1.0,1.0
298.1158527,8.716523895,-5.123395844,26.39640839,28.26654117,1.0,1.0
298.1258897,8.832682343,-4.410578156,24.65268448,26.55606012,1.0,1.0
298.1359267,9.501192169,-4.108057251,22.84773788,25.08321976,1.0,1.0
298.1459637,10.99044525,-4.469106445,20.74970078,23.90215224,1.0,1.0
298.1560007,14.08226578,-5.001249847,18.88248367,24.0805087,1.0,1.0
298.1660377,18.38955872,-5.170398102,16.23463989,25.06935218,1.0,1.0
298.1760747,22.72454407,-5.283263397,12.93220734,26.67507754,1.0,1.0
298.1861117,27.79345322,-5.724994812,9.510323181,29.92821168,1.0,1.0
298.1961487,31.96228409,-6.371201019,4.442012787,32.89241986,1.0,1.0
298.2061857,33.93832489,-7.49910553,-2.921025696,34.8794907,1.0,1.0
298.2162237,34.56836472,-8.867410126,-11.00227066,37.34505002,1.0,1.0
298.2262607,32.96459976,-10.0740509,-17.56088196,38.68508646,1.0,1.0
298.2362977,29.26653992,-10.73792038,-22.3352037,38.34963647,1.0,1.0
298.2463347,24.31768112,-9.933044128,-26.5236438,37.32986286,1.0,1.0
298.2563717,20.37682617,-8.387657776,-30.18592804,37.37322704,1.0,1.0
298.2664087,16.53701111,-5.554199982,-33.18718689,37.49281594,1.0,1.0
298.2764457,13.02261932,-3.695515137,-33.07971039,35.74230946,1.0,1.0
298.2864827,12.83865189,-1.827998657,-33.94820435,36.34079168,1.0,1.0
298.2965207,13.33262466,3.487148438,-38.69767776,41.07833187,1.0,1.0
298.3065577,11.36257141,4.637506256,-37.13373001,39.10918559,1.0,1.0
298.3165947,9.479936371,2.612068176,-34.14953568,35.53706348,1.0,1.0
298.3266317,8.003556519,0.2814147949,-33.14736969,34.10108838,1.0,1.0
298.3366687,6.528374176,-3.183729401,-32.01811798,32.83162624,1.0,1.0
298.3467057,5.293292542,-6.788982239,-29.60154327,30.827919,1.0,1.0
298.3567427,4.205055542,-9.14538208,-26.6218396,28.46125171,1.0,1.0
298.3667797,3.630550232,-10.23272095,-23.58570328,25.96487766,1.0,1.0
298.3768167,4.110152893,-10.78836548,-19.63077759,22.77388011,1.0,1.0
298.3868537,5.187911682,-10.87787933,-14.92291763,19.181662,1.0,1.0
298.3968917,6.293961639,-10.21505768,-10.61068497,16.01711559,1.0,1.0
298.4069287,7.125482483,-8.879983978,-7.087311859,13.4110628,1.0,1.0
298.4169657,7.771389313,-7.423961792,-4.291875,11.57280828,1.0,1.0
298.4270027,7.794740753,-5.993386688,-2.180964661,10.07150804,1.0,1.0
298.4370397,6.872957611,-4.615801392,-0.818946991,8.31948574,1.0,1.0
298.4470767,4.961432648,-3.300336914,-0.4379891968,5.974937004,1.0,1.0
298.4571137,3.276985474,-2.699486389,-0.6604266357,4.296745734,1.0,1.0
298.4671507,1.864672394,-3.678450623,-1.061891785,4.258593228,1.0,1.0
298.4771877,0.9195378113,-6.854246521,-1.395847321,7.055114095,1.0,1.0
298.4872257,0.4716691589,-12.71755371,-1.346899109,12.797374,1.0,1.0
298.4972627,1.894011383,-20.74895233,-0.06212081909,20.83531044,1.0,1.0
298.5072997,5.794600067,-29.09394882,2.890938263,29.80591841,1.0,1.0
298.5173367,13.69906265,-35.90837814,4.704267426,38.71958252,1.0,1.0
298.5273737,19.93419662,-36.21254562,4.691843262,41.60209188,1.0,1.0
298.5374107,22.33460495,-34.78810776,8.006101227,42.10872447,1.0,1.0
298.5474477,21.37255554,-37.61527863,13.77495483,45.40313532,1.0,1.0
298.5574847,16.8450705,-42.60575089,18.73249557,49.49659381,1.0,1.0
298.5675227,13.33576813,-50.26187988,24.30166443,57.39921755,1.0,1.0
298.5775597,10.79614929,-55.03201035,25.90468094,61.77484518,1.0,1.0
298.5875967,8.947194214,-54.42292694,24.74429398,60.44987465,1.0,1.0
298.5976337,10.2213446,-49.51897476,23.3186586,55.68091761,1.0,1.0
298.6076707,15.45476166,-41.76779343,22.72649002,49.99891573,1.0,1.0
298.6177077,21.27391068,-34.98270309,24.50898331,47.71853994,1.0,1.0
298.6277447,28.46001709,-29.81844223,25.82833969,48.64375809,1.0,1.0
298.6377817,35.13089493,-21.1846962,25.05504776,48.07001716,1.0,1.0
298.6478187,40.26881058,-11.38203094,24.70567429,48.59524746,1.0,1.0
298.6578567,39.33175919,-3.570075989,24.67603592,46.56865332,1.0,1.0
298.6678937,28.40508133,0.3608995056,25.18108566,37.9613747,1.0,1.0
298.6779307,12.67579056,-0.3149450684,26.58157333,29.45088959,1.0,1.0
298.6879677,-0.6589297485,-2.751278687,27.12673965,27.27386528,1.0,1.0
298.6980047,-9.231602783,-3.632645874,25.5761142,27.43275822,1.0,1.0
298.7080417,-12.88340881,-3.474275208,23.11508194,26.69006976,1.0,1.0
298.7180787,-13.44788498,-4.469405823,20.97109039,25.31023175,1.0,1.0
298.7281161,-11.55282578,-6.203100586,19.26523773,23.30441214,1.0,1.0
298.7381531,-8.212671661,-8.579558716,18.53206238,22.01122758,1.0,1.0
298.7481911,-4.881049805,-11.80924255,18.80135239,22.73265731,1.0,1.0
298.7582281,-2.039059753,-14.53971451,18.33028198,23.48532095,1.0,1.0
298.7682651,-0.2414479065,-15.79709976,16.35603745,22.74041818,1.0,1.0
298.7783021,0.1434017944,-15.4860466,13.37139404,20.46050786,1.0,1.0
298.7883391,-0.6312373352,-13.72810226,10.10967682,17.06062184,1.0,1.0
298.7983761,-1.585203552,-11.04987167,7.22412735,13.2966368,1.0,1.0
298.8084131,-2.216291199,-8.443641357,5.482648773,10.30856264,1.0,1.0
298.8184501,-2.088906097,-6.396498413,5.481301575,8.678904746,1.0,1.0
298.8284871,-1.230291595,-5.276527405,6.897207184,8.770793909,1.0,1.0
298.8385251,-0.4183799744,-4.776567078,7.828121338,9.179875736,1.0,1.0
298.8485621,0.4041595459,-4.227808228,7.666756897,8.764523299,1.0,1.0
298.8585991,0.7068301392,-3.44703186,6.893464966,7.739605722,1.0,1.0
298.8686361,0.1992356873,-3.275787964,5.950725403,6.79570559,1.0,1.0
298.8786731,-0.5773493958,-3.633843384,4.833897858,6.074925396,1.0,1.0
298.8887101,-0.7662565613,-3.838767242,4.076921997,5.651953293,1.0,1.0
298.8987471,-0.8258326721,-4.099075928,3.825894012,5.667617494,1.0,1.0
298.9087841,-0.6321354675,-4.301604767,3.686683502,5.700441568,1.0,1.0
298.9188211,-0.1127156067,-4.121828613,3.748504944,5.572563615,1.0,1.0
298.9288591,0.5216651917,-3.823049927,4.085005188,5.619173667,1.0,1.0
298.9388961,0.8720864868,-3.591780853,4.886438599,6.126883932,1.0,1.0
298.9489331,0.8399034119,-3.44822937,6.030359802,6.997211078,1.0,1.0
298.9589701,0.3546125793,-3.203937378,7.083869019,7.782812157,1.0,1.0
298.9690071,-0.4715194702,-2.931204529,7.821834412,8.366324412,1.0,1.0
298.9790441,-0.9845027161,-2.810854797,8.146209869,8.673573977,1.0,1.0
298.9890811,-1.373843079,-2.422262878,7.990832977,8.462163667,1.0,1.0
298.9991181,-1.709594879,-2.010618896,7.810907135,8.24473003,1.0,1.0
299.0091551,-2.024390259,-1.722468109,7.570357361,8.023425882,1.0,1.0
299.0191931,-2.524799652,-1.470392303,7.21709198,7.786082677,1.0,1.0
299.0292301,-2.746638336,-1.038540344,6.870263214,7.471486119,1.0,1.0
299.0392671,-2.5215065,-0.3445834351,7.179370422,7.617092125,1.0,1.0
299.0493041,-2.464325409,0.1761836243,7.965385895,8.339742972,1.0,1.0
299.0593411,-2.627037048,0.3688330078,8.70080658,9.0962298,1.0,1.0
299.0693781,-2.593806152,0.5548960876,9.130113831,9.507613717,1.0,1.0
299.0794151,-2.36478241,0.6819818115,9.127269745,9.453271816,1.0,1.0
299.0894521,-1.895059204,0.6557862854,9.032217407,9.252148741,1.0,1.0
299.0994891,-1.318158875,0.6378236389,9.076974335,9.194336566,1.0,1.0
299.1095271,-1.206940155,0.5086422729,8.816216583,8.912973485,1.0,1.0
299.1195641,-1.305585022,0.3317102051,8.289312286,8.39805228,1.0,1.0
299.1296011,-1.07057373,0.4424798584,7.920928345,8.005187217,1.0,1.0
299.1396381,-0.7333250427,0.885408783,8.276439056,8.355905563,1.0,1.0
299.1496751,-0.8119116211,1.178948364,9.08924881,9.201280544,1.0,1.0
299.1597121,-0.9994715881,1.186133423,9.595496063,9.720051474,1.0,1.0
299.1697491,-1.280287628,1.337019653,9.478140106,9.657219985,1.0,1.0
299.1797861,-1.585951996,1.728006592,9.17936142,9.474277101,1.0,1.0
299.1898231,-1.814376984,2.059716797,9.155710602,9.558317516,1.0,1.0
299.1998601,-2.139351196,2.351460114,9.202413483,9.736046534,1.0,1.0
299.2098981,-2.482288055,2.683769073,9.281299438,9.975314015,1.0,1.0
299.2199351,-2.739752655,3.003354492,9.648635559,10.47007884,1.0,1.0
299.2299721,-2.923570404,2.932701416,9.876910858,10.70987253,1.0,1.0
299.2400091,-3.117417297,2.833457794,9.626631317,10.50803522,1.0,1.0
299.2500461,-3.185974731,2.818339233,9.387428741,10.30617724,1.0,1.0
299.2600831,-3.015479279,2.703827362,9.445957031,10.27764087,1.0,1.0
299.2701201,-2.552342377,2.677033081,9.521549835,10.21473783,1.0,1.0
299.2801571,-1.994452515,2.621797943,9.558223572,10.10996059,1.0,1.0
299.2901951,-1.470242615,2.518662415,9.491013336,9.928978188,1.0,1.0
299.3002321,-1.184636536,2.46073288,9.36183197,9.752049419,1.0,1.0
299.3102691,-1.113983459,2.354753265,9.159901886,9.52311003,1.0,1.0
299.3203061,-1.094523926,2.279010773,8.996142426,9.344648269,1.0,1.0
299.3303431,-0.9788145447,2.211650848,8.931476898,9.25314849,1.0,1.0
299.3403801,-0.8858578491,2.209405518,9.036109314,9.344382719,1.0,1.0
299.3504171,-1.024319916,2.21030365,9.36422699,9.675919627,1.0,1.0
299.3604541,-1.307231598,2.21030365,9.583371277,9.921456632,1.0,1.0
299.3704911,-1.274898834,2.148033142,9.768685913,10.08298755,1.0,1.0
299.3805291,-1.120120697,2.003433838,9.76434494,10.03049598,1.0,1.0
299.3905661,-1.091081085,1.955832825,9.491911469,9.752544453,1.0,1.0
299.4006031,-1.084494781,1.826801147,9.141041107,9.384666424,1.0,1.0
299.4106401,-1.054706726,1.687440948,8.807684326,9.029682521,1.0,1.0
299.4206771,-0.8988807678,1.651815033,8.580157471,8.783825007,1.0,1.0
299.4307141,-0.6607260132,1.63924118,8.478369141,8.660624331,1.0,1.0
299.4407511,-0.4323010254,1.61349472,8.343349915,8.508921035,1.0,1.0
299.4507881,-0.4375401306,1.61588974,8.004155273,8.177349366,1.0,1.0
299.4608251,-0.6116281128,1.590742035,7.660469971,7.847760785,1.0,1.0
299.4708621,-0.6518943787,1.660646667,7.638615417,7.844179953,1.0,1.0
299.4809001,-0.7595205688,1.912572784,8.087531891,8.345236859,1.0,1.0
299.4909371,-1.073268127,2.136207733,8.67386261,8.997287398,1.0,1.0
299.5009741,-1.286125488,2.21853653,9.289682007,9.6371269,1.0,1.0
299.5110111,-1.438209229,2.267335052,9.368717651,9.745877306,1.0,1.0
299.5210481,-1.564097443,2.363884277,8.951684875,9.389729059,1.0,1.0
299.5310851,-1.747615814,2.339485016,8.685238953,9.163008613,1.0,1.0
299.5411221,-2.096390533,2.179617462,8.592431946,9.109087347,1.0,1.0
299.5511591,-2.460882568,2.010020142,8.723409576,9.284072308,1.0,1.0
299.5611961,-2.615960083,2.025587769,8.958570557,9.549986355,1.0,1.0
299.5712341,-2.658771057,2.285896454,9.28459259,9.924618164,1.0,1.0
299.5812711,-2.756218414,2.637515259,9.467512207,10.20720403,1.0,1.0
299.5913081,-2.855462036,2.778222656,9.700427856,10.48668132,1.0,1.0
299.6013451,-2.770139465,2.874771881,10.01806732,10.78423196,1.0,1.0
299.6113821,-2.446512451,2.847678223,10.23571472,10.90250202,1.0,1.0
299.6214191,-1.930984497,2.572550354,10.72474777,11.19673753,1.0,1.0
299.6314561,-1.358275452,2.212399292,11.10735214,11.40670393,1.0,1.0
299.6414931,-0.4998106384,2.009271698,11.30748596,11.49548704,1.0,1.0
299.6515301,0.5284011841,1.938468933,11.48935776,11.66371344,1.0,1.0
299.6615681,1.440005493,1.939516754,11.70595734,11.9526055,1.0,1.0
299.6716051,2.127825165,1.949845276,12.12164291,12.46048809,1.0,1.0
299.6816421,2.633922729,1.789229279,12.48927841,12.88879225,1.0,1.0
299.6916791,2.485880585,1.435814209,12.56262589,12.88645544,1.0,1.0
299.7017161,1.050216064,0.9987231445,12.12059509,12.20693357,1.0,1.0
299.7117531,-1.207089844,0.7722441101,11.21512802,11.30630459,1.0,1.0
299.7217893,-3.065175934,0.6709048462,10.79300583,11.23985728,1.0,1.0
299.7318263,-3.968098297,0.5472619629,11.37275024,12.05755978,1.0,1.0
299.7418633,-3.789070587,0.3332070923,11.7674794,12.36695817,1.0,1.0
299.7519013,-2.446811829,-0.2389031982,11.8165773,12.06960902,1.0,1.0
299.7619383,-0.0975970459,-0.6322851562,10.90856552,10.92731035,1.0,1.0
299.7719753,1.312021637,0.154329071,9.183253326,9.277788524,1.0,1.0
299.7820123,1.683848419,1.1665242,8.249495087,8.500017258,1.0,1.0
299.7920493,1.189576263,2.215991821,8.522227936,8.885610864,1.0,1.0
299.8020863,0.04984634399,3.308719482,9.496252441,10.05628757,1.0,1.0
299.8121233,-1.033301239,4.059857483,10.699151,11.49008209,1.0,1.0
299.8221603,-1.727707214,4.232598267,11.37888748,12.26290914,1.0,1.0
299.8321973,-1.636397095,4.068539429,11.44295425,12.25446901,1.0,1.0
299.8422353,-1.153950348,3.362158356,10.62535446,11.20418974,1.0,1.0
299.8522723,-0.380508728,2.706821136,9.334738312,9.726716142,1.0,1.0
299.8623093,0.329614563,2.286944275,8.172106018,8.492471763,1.0,1.0
299.8723463,0.7598199463,2.101929016,7.56107666,7.884498221,1.0,1.0
299.8823833,0.9467811584,2.003882904,7.524253235,7.843872003,1.0,1.0
299.8924203,0.922381897,1.869013367,7.870782623,8.142064752,1.0,1.0
299.9024573,0.9087602234,1.899699554,8.131839752,8.400090553,1.0,1.0
299.9124943,0.9017248535,2.140698395,8.162975006,8.487040608,1.0,1.0
299.9225313,0.7999365234,2.248324585,8.158334656,8.500193306,1.0,1.0
299.9325693,0.840352478,2.133962402,8.013435974,8.335175099,1.0,1.0
299.9426063,0.7710466003,2.082469482,7.648494873,7.964337124,1.0,1.0
299.9526433,0.8306227112,1.989961853,7.311695251,7.623042025,1.0,1.0
299.9626803,1.097966766,2.000589752,7.209607544,7.56216446,1.0,1.0
299.9727173,1.267264709,2.155517578,7.541317749,7.945041804,1.0,1.0
299.9827543,0.9446855164,2.382146301,8.387059021,8.769823872,1.0,1.0
299.9927913,0.4065545654,2.659669189,9.365723877,9.744532341,1.0,1.0
20.00800358,-1.829345856,3.015928345,12.54616013,13.03259237,1.0,2.0
20.01804058,-1.244512024,3.063080292,11.88318878,12.33456309,1.0,2.0
20.02807758,-0.9364526367,2.72747818,11.83528839,12.18154884,1.0,2.0
20.03811458,-0.5141807556,2.411934357,11.67961212,11.93713318,1.0,2.0
20.04815158,0.07783813477,2.190245361,11.34924911,11.55892248,1.0,2.0
20.05818858,0.8012837219,2.034868469,11.10046646,11.31384554,1.0,2.0
20.06822558,1.765129395,1.663640442,10.70124664,10.97269616,1.0,2.0
20.07826258,2.29921875,1.156794434,10.36699173,10.68171792,1.0,2.0
20.08830058,1.994751892,0.5721102905,10.08482849,10.29612116,1.0,2.0
20.09833758,0.8288264465,0.2119592285,9.611812134,9.649808935,1.0,2.0
20.10837458,-0.6774911499,0.2995271301,9.300609283,9.330061297,1.0,2.0
20.11841158,-1.973047028,0.3793112183,9.131461029,9.349886208,1.0,2.0
20.12844858,-2.874173126,0.205821991,8.976233826,9.427407255,1.0,2.0
20.13848558,-3.253035278,-0.1261875916,8.909772034,9.485894767,1.0,2.0
20.14852258,-3.064277802,-0.565973053,8.844807129,9.377672264,1.0,2.0
20.15855958,-2.429597626,-1.042731628,8.638087006,9.033647159,1.0,2.0
20.16859658,-1.876497803,-1.548380127,8.215066681,8.567732815,1.0,2.0
20.17863358,-1.703307953,-2.094294891,8.024662628,8.466554162,1.0,2.0
20.18867058,-1.762884064,-2.54605545,8.104746094,8.67623581,1.0,2.0
20.19870758,-1.794318695,-2.84453476,8.182733917,8.846925564,1.0,2.0
20.20874458,-1.577120361,-2.928061066,8.248147888,8.893412946,1.0,2.0
20.21878158,-1.543141022,-2.51806366,8.501720581,9.000065647,1.0,2.0
20.22881858,-1.754651184,-1.886077881,8.877289581,9.243503711,1.0,2.0
20.23885558,-1.93772049,-1.385069733,9.308393097,9.608296462,1.0,2.0
20.24889258,-2.120340729,-1.239422607,9.811496887,10.11422189,1.0,2.0
20.25892958,-2.489473114,-1.401086426,10.162966,10.55681759,1.0,2.0
20.26896658,-2.732417908,-1.687590637,10.15937347,10.65490212,1.0,2.0
20.27900358,-2.767594757,-2.080673218,9.835896149,10.42754213,1.0,2.0
20.28904058,-2.87252655,-2.232607269,9.562115479,10.23083557,1.0,2.0
20.29907758,-3.072061615,-2.162852325,9.386979675,10.11092875,1.0,2.0
20.30911458,-3.243305511,-2.055076447,9.351802826,10.10933163,1.0,2.0
20.31915158,-3.385509796,-1.650318146,9.077423401,9.827758756,1.0,2.0
20.32918858,-2.991828461,-1.925745392,9.112450562,9.78244796,1.0,2.0
20.33922658,-2.716251526,-2.17752182,9.432934113,10.05484309,1.0,2.0
20.34926358,-2.772983551,-2.145787811,10.04381378,10.63823474,1.0,2.0
20.35930058,-2.43962677,-2.355950775,10.64032333,11.16775553,1.0,2.0
20.36933758,-1.845362549,-2.249821472,10.96380066,11.34336742,1.0,2.0
20.37937458,-1.55975647,-1.951940918,11.08519821,11.36329763,1.0,2.0
20.38941158,-1.547631683,-2.071392517,11.1848909,11.47987871,1.0,2.0
20.39944858,-1.588796082,-2.622845764,11.38412659,11.78990802,1.0,2.0
20.40948558,-1.722168732,-3.453468475,11.66449356,12.28628177,1.0,2.0
20.41952258,-1.570384369,-4.354444885,11.92165878,12.78879375,1.0,2.0
20.42955958,-1.173260193,-4.711153107,11.96566727,12.91312109,1.0,2.0
20.43959658,-0.8032296753,-4.238885193,11.81762512,12.5805242,1.0,2.0
20.44963358,-0.3731739807,-3.418591003,11.74008636,12.23338265,1.0,2.0
20.45967096,0.1179547119,-2.538421326,12.0527861,12.31775747,1.0,2.0
20.46970796,-0.3775149536,-1.931283875,11.19102814,11.36272352,1.0,2.0
20.47974496,-0.5610333252,-1.303339691,10.83297272,10.92550917,1.0,2.0
20.48978196,0.02918930054,-1.235231323,10.16775604,10.24255395,1.0,2.0
20.49981896,0.1475930786,-1.503473511,9.388027496,9.508799955,1.0,2.0
20.50985596,-0.01871109009,-1.798959045,8.852590942,9.03354693,1.0,2.0
20.51989296,-0.2198927307,-2.051783295,8.524922333,8.771115567,1.0,2.0
20.52992996,-0.1651066589,-2.28170517,8.231981506,8.543942779,1.0,2.0
20.53996696,0.154329071,-2.506837006,7.829618225,8.222589056,1.0,2.0
20.55000396,0.297431488,-2.76370285,7.319029999,7.829094396,1.0,2.0
20.56004096,0.03143463135,-3.166365509,6.769373016,7.473370706,1.0,2.0
20.57007796,-0.6274951172,-3.561543732,6.747069397,7.655147897,1.0,2.0
20.58011496,-1.043031006,-3.517535248,7.279961243,8.15222691,1.0,2.0
20.59015196,-0.6024971008,-3.209026794,7.930209045,8.576075514,1.0,2.0
20.60018996,0.2278262329,-3.497327271,8.680448914,9.361271077,1.0,2.0
20.61022696,0.6047424316,-4.127516785,9.379046173,10.26492159,1.0,2.0
20.62026396,0.636177063,-4.519701233,9.752968597,10.76813897,1.0,2.0
20.63030096,0.8635542297,-4.810546417,9.616602173,10.78731292,1.0,2.0
20.64033796,1.434616699,-4.865781555,9.000184021,10.33137298,1.0,2.0
20.65037496,1.983375549,-4.773423615,8.496780853,9.945583766,1.0,2.0
20.66041196,2.114652557,-4.64409256,8.613238678,10.01135514,1.0,2.0
20.67044896,1.14901062,-4.07078476,8.893605652,9.848235144,1.0,2.0
20.68048596,0.6373745728,-3.896846466,8.893156586,9.730359335,1.0,2.0
20.69052296,0.5460644531,-4.405937805,8.910370789,9.955158558,1.0,2.0
20.70055996,0.1212478638,-4.620142365,9.126371613,10.22991082,1.0,2.0
20.71059696,-0.4132905579,-4.582720184,9.491462402,10.54798521,1.0,2.0
20.72063396,-0.8062234497,-4.515659637,9.637408905,10.67337007,1.0,2.0
20.73067096,-0.9174421692,-4.439917145,9.388925629,10.4262404,1.0,2.0
20.74070796,-0.7473957825,-4.22047348,8.922944641,9.898986712,1.0,2.0
20.75074496,-0.9388476562,-3.968697052,8.713081055,9.620279241,1.0,2.0
20.76078196,-1.191971283,-3.733536072,8.509953461,9.369065857,1.0,2.0
20.77081896,-1.377435608,-3.195704498,8.732241211,9.400100673,1.0,2.0
20.78085596,-1.536405029,-2.951113129,9.179660797,9.764004376,1.0,2.0
20.79089296,-1.642983398,-2.881208496,9.494306488,10.05696836,1.0,2.0
20.80092996,-1.733994141,-2.817890167,9.492510223,10.05261115,1.0,2.0
20.81096696,-1.775158539,-2.871778107,9.226213989,9.824526549,1.0,2.0
20.82100396,-1.966460724,-2.924318848,9.00497406,9.669962064,1.0,2.0
20.83104096,-2.2056633,-2.951113129,8.970545654,9.697665112,1.0,2.0
20.84107896,-2.182611237,-2.908152466,9.098978577,9.798599579,1.0,2.0
20.85111496,-2.177222443,-2.756966858,9.198671265,9.846660188,1.0,2.0
20.86115296,-2.596949615,-2.692151642,9.200317841,9.931650222,1.0,2.0
20.87118996,-3.036286011,-2.567460938,9.104966125,9.935355884,1.0,2.0
20.88122696,-3.074606323,-2.435585175,8.954828339,9.77620733,1.0,2.0
20.89126396,-2.959046631,-2.340233459,8.913813629,9.679293519,1.0,2.0
20.90130096,-3.154689789,-2.298769684,8.961264954,9.774491255,1.0,2.0
20.91133796,-3.223696289,-2.204016724,8.994645538,9.805791954,1.0,2.0
20.92137496,-3.143313446,-1.97155014,9.047335968,9.778635769,1.0,2.0
20.93141196,-3.028352509,-1.773961029,9.131011963,9.782291966,1.0,2.0
20.94144896,-2.881657562,-1.859882355,9.308842163,9.920567277,1.0,2.0
20.95148596,-2.72747818,-2.060914307,9.367220764,9.971525954,1.0,2.0
20.96152296,-2.517614594,-2.006128235,9.321116638,9.861346212,1.0,2.0
20.97155996,-2.570005646,-1.848056946,9.194330292,9.723988534,1.0,2.0
20.98159696,-2.381397858,-1.630559235,9.246571655,9.68653016,1.0,2.0
20.99163396,-1.950593719,-1.582209778,9.361981659,9.693033799,1.0,2.0
21.00167096,-1.517095184,-1.374292145,9.599837036,9.815657279,1.0,2.0
21.01170796,-0.8065228271,-0.8683442688,10.23496628,10.3033507,1.0,2.0
21.02174496,-0.2537223816,-0.5635780334,10.92233688,10.93980979,1.0,2.0
21.03178196,-0.1853146362,-0.5065466309,11.09223358,11.10534001,1.0,2.0
21.04181896,-0.2528242493,-0.4885839844,10.74271042,10.75678677,1.0,2.0
21.05185596,-0.4760101318,-0.5804928589,10.09485764,10.12273225,1.0,2.0
21.06189296,-0.9626481628,-0.8324189758,9.553283844,9.637678405,1.0,2.0
21.07192996,-1.563049622,-1.059646454,9.192384338,9.384343587,1.0,2.0
21.08196696,-2.200573883,-1.202599182,9.069190521,9.409515764,1.0,2.0
21.09200396,-2.75786499,-1.263073425,9.057514801,9.551949966,1.0,2.0
21.10204096,-3.248843994,-1.253792725,9.139095154,9.780084035,1.0,2.0
21.11207796,-3.502416687,-1.278341675,9.210796051,9.936792439,1.0,2.0
21.12211596,-3.478915558,-1.249451752,9.245074768,9.95667568,1.0,2.0
21.13215296,-3.394790497,-1.207688599,9.195527802,9.876276921,1.0,2.0
21.14218996,-3.182831268,-1.159937897,9.088350677,9.699174648,1.0,2.0
21.15222696,-2.982847137,-1.05545517,9.213041382,9.741226523,1.0,2.0
21.16226396,-2.894381104,-1.01099762,9.447004852,9.932042028,1.0,2.0
21.17230096,-2.816692657,-0.8476872253,9.758956146,10.19262264,1.0,2.0
21.18233796,-2.694396973,-0.5304968262,9.93753479,10.30998543,1.0,2.0
21.19237496,-2.632575531,-0.3357518005,9.914632416,10.26367961,1.0,2.0
21.20241196,-2.41971817,-0.245489502,9.904004517,10.19826488,1.0,2.0
21.21244896,-2.135608978,-0.3981719971,10.12240036,10.35289118,1.0,2.0
21.22248596,-2.012864227,-0.8957373047,10.32552795,10.55795886,1.0,2.0
21.23252296,-2.725232849,-1.348395996,10.17149826,10.61623486,1.0,2.0
21.24255996,-3.191064148,-1.618584137,10.17748581,10.78813804,1.0,2.0
21.25259696,-2.926713867,-1.941013641,10.61472656,11.18059068,1.0,2.0
21.26263396,-2.89363266,-2.030527496,10.78417419,11.34876931,1.0,2.0
21.27267096,-2.810705109,-1.752555542,10.75767929,11.25607293,1.0,2.0
21.28270796,-2.521356812,-1.220112762,10.73926758,11.09854871,1.0,2.0
21.29274496,-2.221230927,-0.6429130554,10.72055649,10.96711154,1.0,2.0
21.30278196,-1.908082123,-0.1574725342,10.70828201,10.87809168,1.0,2.0
21.31281896,-1.531764679,0.2703378296,10.64196991,10.7550411,1.0,2.0
21.32285596,-1.081501007,0.6375242615,10.58448944,10.65868183,1.0,2.0
21.33289296,-0.7226971436,0.8387059021,10.42821442,10.48681909,1.0,2.0
21.34292996,-0.5345384216,0.8181985474,10.27747787,10.32384287,1.0,2.0
21.35296696,-0.1835183716,0.4110452271,9.990524597,10.00066092,1.0,2.0
21.36300396,-0.2676434326,0.4131408691,9.582323456,9.594959156,1.0,2.0
21.37304096,-0.7249424744,0.5652246094,9.08341095,9.129806949,1.0,2.0
21.38307796,-1.198557587,0.3240760803,8.480315094,8.570723989,1.0,2.0
21.39311596,-1.766626282,-0.2074685669,8.209677887,8.400168012,1.0,2.0
21.40315296,-1.713486786,-1.181044006,8.428373108,8.681496136,1.0,2.0
21.41318996,-1.108444977,-2.288890228,8.50890564,8.880830137,1.0,2.0
21.42322696,-1.039288788,-3.000959473,8.526269531,9.098524664,1.0,2.0
21.43326396,-1.437760162,-3.501368866,8.907676392,9.678503857,1.0,2.0
21.44330096,-2.000140686,-4.115691376,9.519154816,10.56190261,1.0,2.0
21.45333771,-2.311642914,-4.452341309,10.1988913,11.36593242,1.0,2.0
21.46337471,-2.286794586,-4.356091461,10.79824493,11.8662149,1.0,2.0
21.47341171,-2.0172052,-4.005370789,11.03400467,11.91055712,1.0,2.0
21.48344871,-1.809437256,-3.509302368,11.00182159,11.68885558,1.0,2.0
21.49348571,-1.861379242,-3.029999084,10.93925171,11.50273251,1.0,2.0
21.50352271,-2.05582489,-2.717299347,10.97532669,11.49208109,1.0,2.0
21.51355971,-2.238295441,-2.525997162,11.00721039,11.51300607,1.0,2.0
21.52359671,-2.293530579,-2.275567932,10.68687653,11.16457889,1.0,2.0
21.53363371,-2.160157928,-2.01256485,10.27643005,10.69213329,1.0,2.0
21.54367071,-2.055076447,-1.739832001,9.836494904,10.19838157,1.0,2.0
21.55370771,-2.263143768,-1.421593781,9.431586914,9.802937331,1.0,2.0
21.56374471,-2.543061676,-1.201401672,9.194629669,9.615182963,1.0,2.0
21.57378171,-2.808759155,-1.059945831,9.025631104,9.511815283,1.0,2.0
21.58381871,-3.03284317,-0.996328125,8.887318726,9.443264349,1.0,2.0
21.59385571,-3.080294495,-0.8970845032,8.753197632,9.322630721,1.0,2.0
21.60389271,-3.116519165,-0.9392967224,8.612490234,9.20706023,1.0,2.0
21.61392971,-3.271297302,-1.200204163,8.797954559,9.462868513,1.0,2.0
21.62396671,-3.440744934,-1.491648102,9.142238617,9.881511357,1.0,2.0
21.63400371,-3.529360657,-1.765279083,9.277706909,10.08208522,1.0,2.0
21.64404071,-3.502416687,-2.054328003,9.200168152,10.05635522,1.0,2.0
21.65407771,-3.44478653,-2.189646606,9.00617157,9.887984266,1.0,2.0
21.66411471,-3.352877655,-2.103725281,8.671766968,9.532417897,1.0,2.0
21.67415271,-3.271297302,-1.970652008,8.376431122,9.20594665,1.0,2.0
21.68418971,-3.218756561,-1.842967529,8.242459717,9.038532254,1.0,2.0
21.69422671,-3.133583679,-1.642684021,8.218808899,8.947992914,1.0,2.0
21.70426371,-3.056793365,-1.387913818,8.128696289,8.794657117,1.0,2.0
21.71430071,-2.978955231,-1.230141907,8.125253448,8.741119321,1.0,2.0
21.72433771,-2.797083435,-1.063089294,8.220754852,8.748408137,1.0,2.0
21.73437471,-2.443818054,-0.9328601074,8.304580536,8.70680955,1.0,2.0
21.74441171,-2.078427887,-0.8496331787,8.333769836,8.630959316,1.0,2.0
21.75444871,-1.94700119,-0.7851173401,8.523275757,8.778009598,1.0,2.0
21.76448571,-1.88503006,-0.7273374939,8.751850433,8.982051223,1.0,2.0
21.77452271,-1.78324173,-0.7204518127,8.842561798,9.049303898,1.0,2.0
21.78455971,-1.844614105,-0.6387217712,8.900491333,9.112042179,1.0,2.0
21.79459671,-1.939217377,-0.5307962036,8.963959351,9.186668378,1.0,2.0
21.80463371,-2.044448547,-0.4676275635,8.979976044,9.221627576,1.0,2.0
21.81467071,-2.17168396,-0.4430786133,9.009315033,9.277946284,1.0,2.0
21.82470771,-2.267335052,-0.4364923096,8.99329834,9.284974357,1.0,2.0
21.83474471,-2.345023499,-0.4409829712,8.989256744,9.30055579,1.0,2.0
21.84478171,-2.389780426,-0.4993615723,9.051078186,9.374562859,1.0,2.0
21.85481871,-2.325863342,-0.4974156189,8.996890869,9.305971626,1.0,2.0
21.86485571,-2.215991821,-0.4562512207,8.867410126,9.151488801,1.0,2.0
21.87489271,-2.173929291,-0.4272116089,8.81307312,9.087284311,1.0,2.0
21.88492971,-2.378254395,-0.493074646,8.91486145,9.239803637,1.0,2.0
21.89496671,-2.58003479,-0.6665638733,9.171876984,9.551136808,1.0,2.0
21.90500371,-2.757415924,-0.8614585876,9.46017746,9.891431193,1.0,2.0
21.91504071,-2.860252075,-0.9900411987,9.656419373,10.11966692,1.0,2.0
21.92507771,-2.771786041,-0.9286688232,9.767638092,10.19568426,1.0,2.0
21.93511471,-2.572400665,-0.6773414612,9.742789764,10.09940538,1.0,2.0
21.94515171,-2.231559448,-0.4468208313,9.70581665,9.969071335,1.0,2.0
21.95518971,-1.786834259,-0.3215313721,9.762398987,9.929783133,1.0,2.0
21.96522671,-1.486408997,-0.2871029663,9.873018951,9.988410436,1.0,2.0
21.97526371,-1.389410706,-0.2748284912,10.2187999,10.31648507,1.0,2.0
21.98530071,-1.532513123,-0.3249742126,10.69720505,10.81130892,1.0,2.0
21.99533771,-1.618584137,-0.1139131165,10.87877747,10.99911769,1.0,2.0
22.00537471,-1.575773163,0.1407073975,11.0720256,11.18448079,1.0,2.0
22.01541171,-1.693428497,0.2275268555,11.22410934,11.35341795,1.0,2.0
22.02544871,-1.900447998,0.266894989,11.13669113,11.30083293,1.0,2.0
22.03548571,-2.012864227,0.288899231,10.91619965,11.10398577,1.0,2.0
22.04552271,-2.046843567,0.2282752991,10.7668103,10.96201999,1.0,2.0
22.05555971,-2.19623291,0.2751278687,10.54227722,10.77212808,1.0,2.0
22.06559671,-2.32496521,0.4002676392,10.34259247,10.60824662,1.0,2.0
22.07563371,-2.251468048,0.2850073242,10.26295807,10.51088226,1.0,2.0
22.08567071,-2.235900421,-0.1013392639,10.51533325,10.75089549,1.0,2.0
22.09570771,-2.417622528,-0.5854325867,11.0640921,11.34027178,1.0,2.0
22.10574471,-2.80232254,-1.045126648,11.84426971,12.21605609,1.0,2.0
22.11578171,-3.278182983,-1.48251709,12.67549118,13.17620648,1.0,2.0
22.12581871,-3.610791321,-1.577419739,13.07351349,13.65440669,1.0,2.0
22.13585571,-3.807332611,-1.44269989,13.10928909,13.7270035,1.0,2.0
22.14589271,-3.85313736,-1.211580505,13.12126419,13.72888083,1.0,2.0
22.15592971,-3.819008331,-0.8999285889,13.05599991,13.63282178,1.0,2.0
22.16596671,-3.761976929,-0.5051994324,12.63687149,13.19462837,1.0,2.0
22.17600371,-3.808230743,-0.2007325745,12.24004669,12.82036107,1.0,2.0
22.18604071,-3.907324677,0.02993774414,11.79083084,12.42142401,1.0,2.0
22.19607771,-3.78293335,0.4444258118,11.25060425,11.87788681,1.0,2.0
22.20611471,-3.591481476,0.7417076111,10.70424042,11.315018,1.0,2.0
22.21615171,-3.501668243,0.6807843018,10.22837997,10.83258532,1.0,2.0
22.22618871,-3.547772369,0.3879931641,9.554481354,10.19928142,1.0,2.0
22.23622571,-3.543581085,0.08352630615,9.028175812,9.699067071,1.0,2.0
22.24626371,-3.009192352,-0.189206543,9.339228973,9.81387974,1.0,2.0
22.25630071,-2.148182831,-0.2856060791,10.02450394,10.25606842,1.0,2.0
22.26633771,-1.41575592,-0.1697470093,10.21580612,10.31483755,1.0,2.0
22.27637471,-1.230590973,-0.1445993042,10.60335022,10.67549994,1.0,2.0
22.28641171,-1.830842743,-0.17902771,11.50492538,11.65106622,1.0,2.0
22.29644871,-2.588117981,-0.1739382935,12.72773254,12.989372,1.0,2.0
22.30648571,-2.668500824,-0.5950126648,14.25485687,14.51467813,1.0,2.0
22.31652271,-1.186732178,-1.359173584,15.91744949,16.01939089,1.0,2.0
22.32655971,1.250349884,-1.414408722,17.30835709,17.41100663,1.0,2.0
22.33659671,2.682721252,-1.023571472,19.24697571,19.45997857,1.0,2.0
22.34663371,2.804418182,-0.83661026,21.48033142,21.6787757,1.0,2.0
22.35667071,2.017654266,-1.117575989,23.60201935,23.71445176,1.0,2.0
22.36670771,1.124311981,-1.529219971,25.24605057,25.31729963,1.0,2.0
22.37674471,-0.1309776306,-2.040556641,26.95399887,27.03144616,1.0,2.0
22.38678171,-1.207688599,-2.970123596,29.29108887,29.46604882,1.0,2.0
22.39681871,-1.701811066,-3.700454865,30.55161758,30.82192181,1.0,2.0
22.40685571,-1.771865387,-4.499044189,31.11714157,31.49059233,1.0,2.0
22.41689271,-2.143841858,-5.683231659,31.84298218,32.41713581,1.0,2.0
22.42692971,-3.098706207,-6.68824173,32.18157806,33.01497424,1.0,2.0
22.43696671,-4.259841614,-7.626490631,32.67689804,33.82438877,1.0,2.0
22.44700371,-5.776338043,-8.18123703,33.56185776,35.0242347,1.0,2.0
22.45704083,-7.390431519,-8.550369415,35.11742294,36.8912007,1.0,2.0
22.46707783,-8.983568573,-8.280480652,35.58011078,37.61934538,1.0,2.0
22.47711483,-11.56150772,-7.467670898,35.73863113,38.29731485,1.0,2.0
22.48715183,-15.82284622,-6.116430817,36.61805237,40.35659733,1.0,2.0
22.49718883,-20.91735214,-4.252955933,38.44365601,43.97201317,1.0,2.0
22.50722583,-25.91725479,-1.340462494,40.75859207,48.31939324,1.0,2.0
22.51726283,-28.89201874,0.9494755554,43.30898849,52.0703249,1.0,2.0
22.52729983,-27.2482869,1.414558411,44.09844681,51.85694867,1.0,2.0
22.53733783,-22.63742523,0.04355941772,43.42739227,48.97339398,1.0,2.0
22.54737483,-18.40153381,-2.052831116,42.05684235,45.95224206,1.0,2.0
22.55741183,-18.06503357,-3.489992523,38.93253937,43.06121349,1.0,2.0
22.56744883,-20.59103073,-3.969595184,34.08487015,40.01907802,1.0,2.0
22.57748583,-22.89144699,-4.367318115,28.36930573,36.71388457,1.0,2.0
22.58752283,-23.36895401,-5.290448456,22.4295076,32.82041541,1.0,2.0
22.59755983,-21.73420349,-5.780978394,16.23703491,27.73872051,1.0,2.0
22.60759683,-18.60795456,-6.444698181,10.81501007,22.46674321,1.0,2.0
22.61763383,-15.32842438,-7.073091431,6.262826385,18.00589377,1.0,2.0
22.62767083,-12.086017,-7.433691559,1.79491745,14.30221332,1.0,2.0
22.63770783,-9.664652252,-7.806416473,-1.860331421,12.56210469,1.0,2.0
22.64774483,-8.249794464,-7.801476746,-4.355792084,12.16121181,1.0,2.0
22.65778183,-7.125482483,-7.597900085,-5.719456329,11.88329782,1.0,2.0
22.66781883,-6.400689697,-7.289092255,-5.693111115,11.24772015,1.0,2.0
22.67785583,-5.858367462,-6.756649475,-4.710404663,10.10745732,1.0,2.0
22.68789283,-5.382507019,-5.962850189,-3.592978363,8.799798731,1.0,2.0
22.69792983,-5.486989746,-5.163362732,-2.600841522,7.97068051,1.0,2.0
22.70796683,-5.713319092,-4.293222198,-2.330204315,7.516889253,1.0,2.0
22.71800383,-5.969885559,-3.215762787,-2.531984711,7.23820492,1.0,2.0
22.72804083,-6.302344208,-2.339335327,-2.989433441,7.357223973,1.0,2.0
22.73807783,-6.525979156,-1.82650177,-3.563040619,7.65635495,1.0,2.0
22.74811483,-6.851701813,-1.642534332,-4.249363403,8.228051172,1.0,2.0
22.75815183,-7.332352295,-1.675465851,-5.018613739,9.041961062,1.0,2.0
22.76818883,-7.660020905,-1.695524139,-6.053112488,9.909131806,1.0,2.0
22.77822583,-8.216713257,-1.683249664,-7.375762024,11.16913477,1.0,2.0
22.78826283,-9.3747052,-1.601968689,-9.00377655,13.09654128,1.0,2.0
22.79829983,-10.48614395,-1.473685455,-10.60828995,14.98888853,1.0,2.0
22.80833683,-12.01940552,-1.428329773,-11.76807816,16.8817623,1.0,2.0
22.81837383,-14.07912231,-1.556762695,-12.89792862,19.15728994,1.0,2.0
22.82841083,-15.7966507,-1.921404419,-13.72331223,21.01321647,1.0,2.0
22.83844783,-18.26561646,-2.572700043,-14.25515625,23.31225021,1.0,2.0
22.84848483,-21.81024536,-3.043620758,-15.11661484,26.71071834,1.0,2.0
22.85852183,-25.29320251,-3.171454926,-15.96205673,30.07642723,1.0,2.0
22.86855983,-27.74899567,-3.012036438,-15.81266739,32.07989361,1.0,2.0
22.87859683,-27.66636749,-2.577041016,-14.46966019,31.32794434,1.0,2.0
22.88863383,-25.13782562,-2.305355988,-12.26878693,28.06685012,1.0,2.0
22.89867083,-21.69154221,-2.526446228,-10.02195923,24.02801699,1.0,2.0
22.90870783,-18.73623779,-2.891537018,-9.459878082,21.18718684,1.0,2.0
22.91874483,-17.31254837,-3.513493652,-10.01821701,20.3084623,1.0,2.0
22.92878183,-17.54082367,-4.940775604,-10.87264023,21.22041621,1.0,2.0
22.93881883,-17.99572769,-6.748865662,-11.82885178,22.56801137,1.0,2.0
22.94885583,-17.84139862,-8.459508362,-12.16415451,23.19149502,1.0,2.0
22.95889283,-16.85839279,-9.482181702,-11.47004791,22.48731145,1.0,2.0
22.96892983,-15.61238388,-9.667646027,-9.930200043,20.87627321,1.0,2.0
22.97896683,-14.79957413,-9.151519318,-7.4265065,18.9190565,1.0,2.0
22.98900383,-14.98818192,-8.764124908,-4.534370728,17.94480427,1.0,2.0
22.99904083,-15.81940338,-8.766819305,-2.026934967,18.19942607,1.0,2.0
23.00907783,-16.46650772,-8.321046295,-0.809815979,18.46730868,1.0,2.0
23.01911483,-17.30596207,-7.397466888,0.3255729675,18.82351819,1.0,2.0
23.02915183,-16.38941803,-5.724695435,1.798959045,17.45340697,1.0,2.0
23.03918883,-14.34751419,-3.845353546,3.898493042,15.35695788,1.0,2.0
23.04922583,-12.38823853,-2.902164917,5.829477539,13.99549297,1.0,2.0
23.05926283,-11.82346298,-2.70173172,7.136260071,14.07195221,1.0,2.0
23.06929983,-14.45948135,-3.271746368,8.234077148,16.95821193,1.0,2.0
23.07933683,-18.22265579,-5.086273041,10.04082001,21.41852992,1.0,2.0
23.08937383,-20.76287338,-7.698939972,12.31084946,25.33629022,1.0,2.0
23.09941083,-22.26485001,-10.54751633,15.51373901,29.11442503,1.0,2.0
23.10944783,-23.75619873,-13.85189484,19.68436615,33.81872616,1.0,2.0
23.11948483,-24.29852097,-17.94169006,23.4779274,38.2561817,1.0,2.0
23.12952183,-23.63629807,-21.98418365,25.73059296,41.28004761,1.0,2.0
23.13955883,-25.84570358,-25.12510208,27.01252716,45.04384277,1.0,2.0
23.14959583,-29.43763412,-26.13759659,26.75685883,47.59913605,1.0,2.0
23.15963383,-33.9687117,-23.36521179,26.80535797,49.17655653,1.0,2.0
23.16967083,-37.74341217,-20.03523651,30.87704086,52.7197071,1.0,2.0
23.17970783,-38.61849243,-17.520466,36.84019043,56.1743208,1.0,2.0
23.18974483,-35.04527298,-13.81462234,40.68599304,55.44695644,1.0,2.0
23.19978183,-29.04874283,-10.60649368,41.80596405,52.00063267,1.0,2.0
23.20981883,-24.39581863,-7.507937164,39.02295135,46.62955951,1.0,2.0
23.21985583,-21.35309601,-6.349645844,34.68452316,41.2224315,1.0,2.0
23.22989283,-19.30834808,-7.556286621,30.27080154,36.69102342,1.0,2.0
23.23992983,-19.17527481,-8.073760529,25.20608368,32.68368748,1.0,2.0
23.24996683,-19.94497421,-6.753056946,19.80276993,28.90597639,1.0,2.0
23.26000383,-20.8874144,-4.880900116,16.05291779,26.7918539,1.0,2.0
23.27004083,-21.89317291,-3.22130127,14.54764801,26.48248222,1.0,2.0
23.28007783,-22.23341537,-1.862576752,15.6174733,27.23415913,1.0,2.0
23.29011483,-21.60966248,-0.7029382324,18.42144241,28.40459778,1.0,2.0
23.30015183,-21.39381134,-0.339793396,21.80126404,30.54677948,1.0,2.0
23.31018883,-20.9100174,-0.3851490784,23.8985527,31.75717224,1.0,2.0
23.32022583,-18.79746048,0.07918533325,24.60553253,30.96422164,1.0,2.0
23.33026283,-15.90771973,0.9530680847,22.7493924,27.77586614,1.0,2.0
23.34029983,-12.53493347,1.519789581,19.38783279,23.13703477,1.0,2.0
23.35033683,-9.463470612,1.301244049,16.68999298,19.23035043,1.0,2.0
23.36037383,-7.110363922,0.4129911804,15.11766266,16.71142008,1.0,2.0
23.37041083,-5.482948151,-0.8244854736,13.43067078,14.53015534,1.0,2.0
23.38044783,-4.345463562,-1.764231262,11.77825699,12.67765369,1.0,2.0
23.39048483,-4.116439819,-2.349214783,10.58419006,11.59693779,1.0,2.0
23.40052183,-4.858746185,-2.774929504,9.874515839,11.34961283,1.0,2.0
23.41055883,-5.805677032,-2.882256317,9.463769989,11.47066823,1.0,2.0
23.42059583,-6.389912109,-2.63272522,9.124575348,11.44640092,1.0,2.0
23.43063283,-6.60516449,-2.076781311,8.815019073,11.20918283,1.0,2.0
23.44066983,-6.213878174,-1.462758179,8.467142487,10.60398252,1.0,2.0
23.45070683,-5.370232544,-1.042432251,8.150401154,9.816063444,1.0,2.0
23.46074338,-4.586013336,-0.9000782776,8.29589859,9.521743151,1.0,2.0
23.47078038,-4.07303009,-0.7988887024,8.108338623,9.108949034,1.0,2.0
23.48081838,-3.592529297,-0.5810916138,7.329059143,8.18285049,1.0,2.0
23.49085538,-2.873125305,-0.5040019226,6.620881805,7.2349805,1.0,2.0
23.50089237,-2.223326569,-0.9407936096,6.638545074,7.063890879,1.0,2.0
23.51092937,-1.752405853,-1.392703857,6.542444916,6.914776626,1.0,2.0
23.52096638,-2.044598236,-1.518292694,6.423292694,6.90972385,1.0,2.0
23.53100337,-3.013982391,-1.832938385,7.081623688,7.911583093,1.0,2.0
23.54104037,-3.665577393,-1.872007141,7.566016388,8.613098881,1.0,2.0
23.55107738,-3.745810547,-1.43222168,7.539521484,8.539715441,1.0,2.0
23.56111438,-3.979175262,-0.9666897583,7.860154724,8.862863936,1.0,2.0
23.57115137,-4.595443726,-0.8785231018,8.787027283,9.954986406,1.0,2.0
23.58118838,-4.862488403,-0.7649093628,9.273066559,10.49850671,1.0,2.0
23.59122538,-4.480033722,-0.3915856934,9.312584381,10.34157964,1.0,2.0
23.60126237,-4.172124023,0.1112187195,9.261839905,10.1587729,1.0,2.0
23.61129938,-5.008883972,0.829125824,9.254654846,10.55580431,1.0,2.0
23.62133638,-6.192921753,1.593286743,9.638606415,11.56691731,1.0,2.0
23.63137337,-7.199728088,2.478845215,10.67115921,13.10932481,1.0,2.0
23.64141038,-7.898475037,3.270099792,11.67048111,14.46649888,1.0,2.0
23.65144738,-8.028105469,3.663781128,12.14005463,15.00848746,1.0,2.0
23.66148437,-7.870333557,3.56528595,12.70677612,15.36605264,1.0,2.0
23.67152137,-7.604935455,3.095712433,13.39594299,15.71208985,1.0,2.0
23.68155838,-7.27202774,2.688110046,13.52003494,15.58523878,1.0,2.0
23.69159537,-6.953939209,2.340083771,13.13548462,15.04573756,1.0,2.0
23.70163237,-6.664141846,1.790875854,12.93879364,14.66391502,1.0,2.0
23.71166938,-6.447841644,1.062640228,12.74359955,14.32142436,1.0,2.0
23.72170638,-6.27285553,0.2670446777,12.42236755,13.91888088,1.0,2.0
23.73174337,-5.886958008,-0.2962339783,11.67257675,13.07643213,1.0,2.0
23.74178038,-5.533992004,-0.7223977661,10.97802109,12.31518871,1.0,2.0
23.75181738,-5.280119934,-1.068627777,10.41863434,11.72900564,1.0,2.0
23.76185437,-4.798870697,-1.288819885,9.979896698,11.14847769,1.0,2.0
23.77189138,-4.196523285,-1.147214355,9.85326004,10.7709629,1.0,2.0
23.78192838,-3.887266388,-0.7991880798,9.816735992,10.58857153,1.0,2.0
23.79196537,-3.888314209,-0.4661306763,9.879605255,10.62745808,1.0,2.0
23.80200238,-3.896098022,-0.2821632385,9.918973389,10.66045163,1.0,2.0
23.81204037,-3.927382965,-0.2842588806,9.504335632,10.28773716,1.0,2.0
23.82207737,-3.838168488,-0.3153941345,8.885971527,9.684601219,1.0,2.0
23.83211438,-3.638783112,-0.3546125793,8.548124084,9.29714569,1.0,2.0
23.84215138,-3.432062988,-0.4769082642,8.549620972,9.225102526,1.0,2.0
23.85218837,-3.528312836,-0.5303471375,8.767118683,9.465338322,1.0,2.0
23.86222538,-4.166136475,-0.4695735168,9.277108154,10.18046797,1.0,2.0
23.87226238,-4.695435791,-0.120050354,9.811945953,10.87822654,1.0,2.0
23.88229937,-4.7762677,0.3523672485,9.879904633,10.9794996,1.0,2.0
23.89233638,-4.949307861,0.4757107544,9.884395294,11.06450267,1.0,2.0
23.90237338,-4.656516724,0.6213578796,9.634564819,10.71886528,1.0,2.0
23.91241037,-3.497177582,1.25319397,8.587342529,9.356452206,1.0,2.0
23.92244738,-2.589465179,2.230960693,7.489076385,8.23217958,1.0,2.0
23.93248438,-2.347268829,3.171604614,6.600524139,7.689971762,1.0,2.0
23.94252137,-2.698737946,3.850293274,6.270759888,7.837753145,1.0,2.0
23.95255837,-3.274440765,4.018543396,6.255641327,8.124266229,1.0,2.0
23.96259538,-3.647614746,3.671265564,5.682782593,7.686176044,1.0,2.0
23.97263237,-4.236639862,3.421734467,5.381459198,7.656205795,1.0,2.0
23.98266937,-4.525239716,3.066523132,5.319039001,7.627157695,1.0,2.0
23.99270638,-3.97004425,2.327210541,5.158123627,6.912553768,1.0,2.0
24.00274338,-3.162473602,1.583407288,4.673581238,5.860953805,1.0,2.0
24.01278037,-3.033292236,1.134640503,3.645519104,4.87627731,1.0,2.0
24.02281738,-3.420087891,0.8415499878,2.442770233,4.286296067,1.0,2.0
24.03285438,-3.006947021,0.4947212219,1.531465302,3.410552074,1.0,2.0
24.04289137,-2.219584351,0.5629792786,1.212328949,2.590992443,1.0,2.0
24.05292838,-2.001038818,0.8412506104,1.082698517,2.425715363,1.0,2.0
24.06296538,-1.915117493,1.055904236,1.034049683,2.419063354,1.0,2.0
24.07300237,-1.933678894,1.220561829,1.244512024,2.603400741,1.0,2.0
24.08303938,-0.2763253784,1.88967041,3.824397125,4.274719095,1.0,2.0
24.09307638,20.80388809,9.441915436,20.99174744,31.02587609,1.0,2.0
24.10311337,14.2093515,9.259295197,11.31377289,20.38729199,1.0,2.0
24.11315037,3.406466217,2.736908569,14.24228302,14.89756041,1.0,2.0
24.12318738,-1.170565796,-0.9928852844,15.95951202,16.03315532,1.0,2.0
24.13322437,-0.1721420288,-0.6930587769,13.3586705,13.37774424,1.0,2.0
24.14326137,1.056952057,-0.2240840149,11.82645676,11.87570801,1.0,2.0
24.15329838,1.085692291,-1.505419464,10.07719437,10.24670005,1.0,2.0
24.16333538,0.8747808838,-2.646646271,8.879085846,9.306349635,1.0,2.0
24.17337237,0.4128414917,-3.208727417,7.296427002,7.981492137,1.0,2.0
24.18341038,-0.4302053833,-3.302432556,6.409970398,7.223493474,1.0,2.0
24.19344737,-0.8861572266,-3.287763062,6.533164215,7.367285473,1.0,2.0
24.20348438,-0.6171665955,-3.132086792,6.84272049,7.550740757,1.0,2.0
24.21352138,0.0209564209,-2.765948181,7.345375214,7.848913654,1.0,2.0
24.22355837,0.8292755127,-2.323019257,8.267008667,8.627140235,1.0,2.0
24.23359537,1.506467285,-1.715283051,9.447603607,9.719508915,1.0,2.0
24.24363238,1.771865387,-0.697250061,10.62685135,10.79609347,1.0,2.0
24.25366937,1.77381134,0.2186952209,11.71224426,11.84782258,1.0,2.0
24.26370637,1.34330658,0.4879852295,12.82188675,12.90129381,1.0,2.0
24.27374338,0.5989045715,0.3833528137,13.22889038,13.24798803,1.0,2.0
24.28378038,-0.4203259277,0.1932481384,12.88056473,12.88886987,1.0,2.0
24.29381737,-1.082698517,0.1137634277,12.50260071,12.54990847,1.0,2.0
24.30385438,-1.206640778,-0.2839595032,11.72062683,11.78599628,1.0,2.0
24.31389138,-1.00276474,-0.4990621948,10.36938675,10.4297067,1.0,2.0
24.32392837,-1.189426575,-0.5563929749,9.244625702,9.337420044,1.0,2.0
24.33396538,-1.614093475,-0.6445596313,8.667725372,8.840261195,1.0,2.0
24.34400238,-1.813329163,-0.7746391296,8.45157486,8.67855668,1.0,2.0
24.35403937,-1.719174957,-1.057999878,8.385562134,8.62511325,1.0,2.0
24.36407638,-1.297202454,-1.49419281,8.5147435,8.741636187,1.0,2.0
24.37411338,-0.730480957,-1.839375,8.958869934,9.174870752,1.0,2.0
24.38415037,-0.2591111755,-1.983375549,9.602082367,9.808205899,1.0,2.0
24.39418737,0.08921447754,-1.945653992,10.28002258,10.46290557,1.0,2.0
24.40422438,0.6813830566,-1.573677521,10.8079747,10.94317417,1.0,2.0
24.41426137,1.62756546,-0.9056167603,11.1158844,11.27084722,1.0,2.0
24.42429837,2.605032806,-0.3962260437,11.24641296,11.55097379,1.0,2.0
24.43433538,3.315156097,-0.07424560547,11.22949814,11.70885993,1.0,2.0
24.44437238,3.540437622,0.060025177,10.78058167,11.34721299,1.0,2.0
24.45440996,3.264261932,-0.0802331543,10.9154512,11.39337168,1.0,2.0
24.46444696,3.266058197,0.04909790039,11.91133026,12.3510864,1.0,2.0
24.47448396,3.430566101,-0.3981719971,11.34850067,11.86236874,1.0,2.0
24.48452096,4.135599976,-1.155596924,10.66636917,11.49826173,1.0,2.0
24.49455796,4.866529999,-1.524130554,10.51952454,11.69044416,1.0,2.0
24.50459496,4.793631592,-1.534459076,10.41129959,11.56410946,1.0,2.0
24.51463196,4.261039124,-1.451232147,10.45800247,11.38562009,1.0,2.0
24.52466896,3.66467926,-1.356778564,10.54586975,11.24660353,1.0,2.0
24.53470596,3.094963989,-1.149908752,10.545271,11.0500603,1.0,2.0
24.54474296,2.51686615,-0.8095166016,10.4563559,10.78542122,1.0,2.0
24.55477996,2.470762024,-0.4659809875,10.21775208,10.52255961,1.0,2.0
24.56481796,2.650837555,-0.3929328918,9.687854004,10.05165913,1.0,2.0
24.57485496,2.49111969,-0.3547622681,9.0389534,9.382654856,1.0,2.0
24.58489196,2.488275604,-0.1411564636,8.767867126,9.115203485,1.0,2.0
24.59492896,2.805166626,-0.04550537109,8.721164246,9.161317391,1.0,2.0
24.60496596,3.152743835,0.1357676697,8.696315918,9.251169499,1.0,2.0
24.61500296,3.503614197,0.4914280701,8.666078796,9.360434589,1.0,2.0
24.62503996,3.556454315,0.6626719666,8.369695129,9.118075345,1.0,2.0
24.63507696,3.460952911,0.6456074524,8.103847961,8.835573316,1.0,2.0
24.64511396,3.771557007,0.8798703003,8.206085358,9.07406474,1.0,2.0
24.65515096,4.186943207,1.279688873,8.45621521,9.522377471,1.0,2.0
24.66518796,4.370611267,1.520687714,8.659941559,9.818824867,1.0,2.0
24.67522496,4.628524933,1.562301178,8.898994446,10.15165652,1.0,2.0
24.68526196,5.032385101,1.522933044,9.028624878,10.44798029,1.0,2.0
24.69529896,5.240302734,1.32923584,8.803193665,10.33072405,1.0,2.0
24.70533596,4.710404663,1.147513733,7.861202545,9.235973436,1.0,2.0
24.71537296,5.283263397,1.598226471,6.904990997,8.840028317,1.0,2.0
24.72540996,6.03529953,1.306782532,7.264842682,9.534697698,1.0,2.0
24.73544696,5.700894928,0.77927948,6.889573059,8.976285224,1.0,2.0
24.74548396,5.215005341,0.6469546509,5.908213806,7.907074137,1.0,2.0
24.75552096,5.119503937,0.680634613,4.984484711,7.177581199,1.0,2.0
24.76555796,4.659061432,0.4114942932,4.158652039,6.258639449,1.0,2.0
24.77559496,3.877985687,0.06212081909,3.630849609,5.312786545,1.0,2.0
24.78563196,3.312611389,0.03891906738,3.360062714,4.718572914,1.0,2.0
24.79566896,3.292702789,0.2402503967,3.741170197,4.98958579,1.0,2.0
24.80570596,3.000510406,0.2689906311,4.595443726,5.49486321,1.0,2.0
24.81574296,1.115330658,0.2504292297,5.861361237,5.971786401,1.0,2.0
24.82577996,0.2996768188,0.08232879639,7.12817688,7.134948483,1.0,2.0
24.83581696,0.5423222351,-0.2303709412,7.993826752,8.015513104,1.0,2.0
24.84585396,0.3079096985,-0.06556365967,8.048313446,8.054468096,1.0,2.0
24.85589096,-0.2287243652,0.4620890808,8.019872589,8.0364294,1.0,2.0
24.86592796,-0.6891668701,0.7714956665,8.227640533,8.292419749,1.0,2.0
24.87596496,-0.7831713867,0.6650669861,8.642427979,8.703288624,1.0,2.0
24.88600196,-0.6596781921,0.4010160828,8.919202423,8.952550535,1.0,2.0
24.89603896,-0.7134164429,0.1938468933,9.058113556,9.088231997,1.0,2.0
24.90607596,-0.8321195984,-0.1422042847,9.310189362,9.348383338,1.0,2.0
24.91611296,-0.9395960999,-0.4424798584,9.477541351,9.534276025,1.0,2.0
24.92614996,-0.9039701843,-0.4619393921,9.632618866,9.685963881,1.0,2.0
24.93618696,-0.3679348755,-0.3218307495,9.788444824,9.800642998,1.0,2.0
24.94622396,0.5312452698,-0.1764830017,9.87436615,9.890221163,1.0,2.0
24.95626196,0.8747808838,-0.7744894409,10.17389328,10.24076071,1.0,2.0
24.96629896,-0.1706451416,-2.10147995,10.90572144,11.10765942,1.0,2.0
24.97633596,-1.800156555,-3.63429245,12.3554567,13.00407457,1.0,2.0
24.98637296,-2.870580597,-4.897066498,13.91236908,15.02582799,1.0,2.0
24.99640996,-2.928809509,-5.792354736,14.83190689,16.18995863,1.0,2.0
45.000145,2.0862117,0.1655557251,11.79113022,11.9754098,1.0,3.0
45.010182,1.86631897,0.3969744873,12.28779739,12.43505931,1.0,3.0
45.020219,1.675914917,0.6370751953,12.60528717,12.73215694,1.0,3.0
45.030256,1.497635651,0.9147477722,12.80557068,12.92525885,1.0,3.0
45.040293,1.279838562,1.151555328,12.78596146,12.90135174,1.0,3.0
45.05033,1.103056183,1.305884399,12.56741592,12.68313881,1.0,3.0
45.060367,0.8635542297,1.327289886,12.11370941,12.21676635,1.0,3.0
45.070404,0.5587879944,1.149160309,11.50163223,11.57239636,1.0,3.0
45.080441,0.2884501648,0.8590635681,10.84883972,10.88662101,1.0,3.0
45.090478,0.2383044434,0.6744973755,10.15248779,10.17765907,1.0,3.0
45.100515,0.1722917175,0.5727090454,9.557624817,9.576318302,1.0,3.0
45.110552,0.03742218018,0.5025050354,9.221573639,9.235330644,1.0,3.0
45.120589,0.2188449097,0.3996688843,9.001680908,9.013206282,1.0,3.0
45.130626,0.6159690857,0.183817749,8.919651489,8.942784218,1.0,3.0
45.140663,0.9219328308,-0.0122744751,8.815168762,8.863256236,1.0,3.0
45.1507,1.002165985,-0.1942959595,8.671168213,8.731050667,1.0,3.0
45.160737,1.121318207,-0.4540058899,8.500822449,8.586469482,1.0,3.0
45.170774,1.246308289,-0.7652087402,8.346792755,8.473947018,1.0,3.0
45.180811,1.319356384,-0.9701325989,8.243657227,8.404745267,1.0,3.0
45.190848,1.441203003,-1.025966492,8.171058197,8.360374716,1.0,3.0
45.200885,1.663041687,-1.099613342,8.271050262,8.507945087,1.0,3.0
45.210922,1.819616089,-1.171463928,8.674611053,8.940481384,1.0,3.0
45.220959,1.696272583,-1.097817078,9.028924255,9.252243848,1.0,3.0
45.230996,1.769021301,-0.9434880066,9.256451111,9.471087221,1.0,3.0
45.241033,1.949545898,-0.8128097534,9.616003418,9.845248125,1.0,3.0
45.25107,1.914369049,-0.660276947,9.914033661,10.11873697,1.0,3.0
45.261107,1.869462433,-0.4894821167,10.0515976,10.23567764,1.0,3.0
45.271144,1.940414886,-0.3885919189,10.11716125,10.30888769,1.0,3.0
45.281181,1.985770569,-0.2775228882,10.16087036,10.35681371,1.0,3.0
45.291218,1.941313019,-0.08472381592,10.22568558,10.40867522,1.0,3.0
45.301255,1.967957611,0.05957611084,10.32867142,10.51464977,1.0,3.0
45.311292,2.058818665,0.1585203552,10.36160294,10.56535273,1.0,3.0
45.321329,2.223775635,0.2038760376,10.37597305,10.6135555,1.0,3.0
45.331366,2.362088013,0.2568658447,10.44887146,10.71561266,1.0,3.0
45.341403,2.498304749,0.255668335,10.62131287,10.91417335,1.0,3.0
45.35144,2.504591675,0.1785786438,10.71861053,11.0087911,1.0,3.0
45.361477,2.54845047,0.05957611084,10.68882248,10.9885884,1.0,3.0
45.371513,2.628833313,-0.01975891113,10.54886353,10.87150756,1.0,3.0
45.38155,2.73451355,-0.03263214111,10.31504974,10.6714048,1.0,3.0
45.391587,2.84678009,-0.1347198486,10.13677048,10.52978737,1.0,3.0
45.401624,2.84917511,-0.2680924988,10.02929398,10.429593,1.0,3.0
45.411661,2.860102386,-0.3161425781,9.864786072,10.27590074,1.0,3.0
45.421698,2.889441376,-0.4246669006,9.709558868,10.13926757,1.0,3.0
45.431735,2.957849121,-0.610430603,9.58411972,10.04872369,1.0,3.0
45.441772,3.029999084,-0.7711962891,9.454489288,9.958062355,1.0,3.0
45.451809,3.102298737,-0.9343569946,9.332792358,9.879184868,1.0,3.0
45.461846,3.181184692,-1.088536377,9.28818512,9.878017529,1.0,3.0
45.471883,3.234623566,-1.197659454,9.283245392,9.903323825,1.0,3.0
45.48191938,3.277584229,-1.331630859,9.332343292,9.980402319,1.0,3.0
45.49195637,3.360661469,-1.537602539,9.333241425,10.03830975,1.0,3.0
45.50199337,3.461401978,-1.712738342,9.299262085,10.06931237,1.0,3.0
45.51203038,3.566782837,-1.798360291,9.333241425,10.15211481,1.0,3.0
45.52206738,3.626508636,-1.861379242,9.383237457,10.23041753,1.0,3.0
45.53210437,3.573219452,-1.993404694,9.247320099,10.11209615,1.0,3.0
45.54214138,3.461701355,-2.201172638,9.111702118,9.992579884,1.0,3.0
45.55217838,3.374283142,-2.348765717,9.021140442,9.913801591,1.0,3.0
45.56221537,3.421135712,-2.417472839,8.9102211,9.84583082,1.0,3.0
45.57225238,3.521277466,-2.470462646,8.943901062,9.924512426,1.0,3.0
45.58228938,3.507206726,-2.543061676,8.89734787,9.895982055,1.0,3.0
45.59232637,3.567680969,-2.633922729,8.925040283,9.96605441,1.0,3.0
45.60236338,3.716621246,-2.749482422,9.027127991,10.14208888,1.0,3.0
45.61240038,3.847000122,-2.912194061,9.281898193,10.46106678,1.0,3.0
45.62243737,3.918701019,-3.285368042,9.891131287,11.1348255,1.0,3.0
45.63247437,4.068689117,-3.964505768,10.86889801,12.26395047,1.0,3.0
45.64251138,4.28603714,-4.573439484,11.73933792,13.30783671,1.0,3.0
45.65254837,4.406386871,-4.72836731,12.13825836,13.7517642,1.0,3.0
45.66258537,4.370012512,-4.547842712,12.04410416,13.59559957,1.0,3.0
45.67262238,4.129911804,-4.071682892,11.62168259,12.98839017,1.0,3.0
45.68265938,3.801794128,-3.487747192,11.17590958,12.30930436,1.0,3.0
45.69269637,3.578757935,-2.929707642,11.04508163,11.97432769,1.0,3.0
45.70273338,3.406915283,-2.476899261,11.1118428,11.88339818,1.0,3.0
45.71277038,3.292104034,-2.122885437,11.10316086,11.77390218,1.0,3.0
45.72280737,3.25288559,-1.861379242,10.90587112,11.53186985,1.0,3.0
45.73284438,3.13343399,-1.692380676,10.47940796,11.06799675,1.0,3.0
45.74288138,3.000660095,-1.640139313,9.934690704,10.50676436,1.0,3.0
45.75291837,2.942880249,-1.682501221,9.348060608,9.943721217,1.0,3.0
45.76295538,2.886746979,-1.795965271,8.755592651,9.392507762,1.0,3.0
45.77299238,2.847229156,-1.887574768,8.297245789,8.972956037,1.0,3.0
45.78302937,2.799179077,-1.93068512,7.903863831,8.604301947,1.0,3.0
45.79306637,2.699935455,-1.877545624,7.629035339,8.307647636,1.0,3.0
45.80310338,2.609972534,-1.832639008,7.51781662,8.166277554,1.0,3.0
45.81314037,2.447260895,-1.809586945,7.391778717,7.99387787,1.0,3.0
45.82317737,2.286495209,-1.845661926,7.254963226,7.827452951,1.0,3.0
45.83321438,2.146236877,-1.97394516,7.261848907,7.825422786,1.0,3.0
45.84325138,2.008223877,-2.248474274,7.43473938,8.022714587,1.0,3.0
45.85328837,1.868564301,-2.585573273,7.62783783,8.268048842,1.0,3.0
45.86332538,1.740879822,-2.905757446,7.784711609,8.489748154,1.0,3.0
45.87336238,1.529968414,-3.255430298,8.065228271,8.830998632,1.0,3.0
45.88339937,1.262774048,-3.61318634,8.301586761,9.141447182,1.0,3.0
45.89343638,0.9951306152,-3.92678421,8.376880188,9.304947117,1.0,3.0
45.90347338,0.6459068298,-4.023183746,8.431965637,9.364894425,1.0,3.0
45.91351037,0.352666626,-3.865262146,8.472082214,9.318841251,1.0,3.0
45.92354637,0.2094145203,-3.681294708,8.690478058,9.440349254,1.0,3.0
45.93358338,0.1802252197,-3.326233063,9.158854065,9.745815271,1.0,3.0
45.94362038,0.2869532776,-2.940485229,9.553433533,9.99984439,1.0,3.0
45.95365737,0.3347039795,-2.612966309,9.854756927,10.20077712,1.0,3.0
45.96369438,0.3873944092,-2.383044434,10.14021332,10.42367024,1.0,3.0
45.97373138,0.4623884583,-2.158960419,10.20038818,10.43661019,1.0,3.0
45.98376837,0.5891748047,-1.90957901,10.16027161,10.35493786,1.0,3.0
45.99380537,0.7066804504,-1.717528381,10.00235001,10.17331345,1.0,3.0
46.00384238,0.8511300659,-1.589245148,9.8498172,10.01344204,1.0,3.0
46.01387938,1.017583923,-1.476379852,9.721833344,9.885808923,1.0,3.0
46.02391637,1.232387238,-1.379231873,9.696685638,9.871513118,1.0,3.0
46.03395338,1.448687439,-1.409319305,9.844129028,10.04946529,1.0,3.0
46.04399038,1.690434723,-1.31396759,10.0289946,10.25498967,1.0,3.0
46.05402737,1.906435547,-1.283131714,10.0674646,10.32641114,1.0,3.0
46.06406438,2.110760651,-1.290466461,9.78664856,10.09450862,1.0,3.0
46.07410138,2.395019531,-1.548978882,9.727671204,10.13721072,1.0,3.0
46.08413837,2.622696075,-1.749561768,9.721234589,10.21968214,1.0,3.0
46.09417538,2.833308105,-1.806892548,9.78545105,10.34637848,1.0,3.0
46.10421238,2.869981842,-1.850451965,9.741592255,10.32277036,1.0,3.0
46.11424937,2.768492889,-1.928888855,9.667795715,10.23969917,1.0,3.0
46.12428638,2.668351135,-1.92364975,9.617200928,10.16420581,1.0,3.0
46.13432338,2.563569031,-1.851200409,9.634864197,10.14048506,1.0,3.0
46.14436037,2.458936615,-1.73519165,9.825417938,10.27599616,1.0,3.0
46.15439737,2.300266571,-1.571581879,10.00025436,10.38104924,1.0,3.0
46.16443438,2.23724762,-1.375938721,10.0355809,10.37358994,1.0,3.0
46.17447138,2.212399292,-1.325493622,10.23930725,10.55912198,1.0,3.0
46.18450837,2.139500885,-1.214274902,10.42731628,10.71358262,1.0,3.0
46.19454538,2.161505127,-1.023272095,10.46054718,10.7304351,1.0,3.0
46.20458238,2.173779602,-0.9015751648,10.45575714,10.71732303,1.0,3.0
46.21461937,2.212698669,-0.8488847351,10.42656784,10.69251877,1.0,3.0
46.22465638,2.241738281,-0.825383606,10.20068756,10.47667291,1.0,3.0
46.23469338,2.378553772,-0.8647517395,10.05758514,10.37112976,1.0,3.0
46.24473037,2.574047241,-0.9711804199,9.975406036,10.34783244,1.0,3.0
46.25476738,2.937192078,-0.9792636108,9.841284943,10.31682819,1.0,3.0
46.26480438,3.104693756,-1.078656921,9.700577545,10.24225702,1.0,3.0
46.27484137,3.024909668,-1.230441284,9.467362518,10.01474,1.0,3.0
46.28487838,2.89243515,-1.292711792,9.182504883,9.713685233,1.0,3.0
46.29491538,2.757415924,-1.270108795,9.063352661,9.55828857,1.0,3.0
46.30495237,2.667902069,-1.218316498,9.212742004,9.668330351,1.0,3.0
46.31498937,2.490970001,-1.136436768,9.513466644,9.899619572,1.0,3.0
46.32502638,2.188000031,-1.196012878,9.834399261,10.14560002,1.0,3.0
46.33506338,1.906136169,-1.303938446,10.01013382,10.27309056,1.0,3.0
46.34510037,1.668879547,-1.410067749,10.10413834,10.33765261,1.0,3.0
46.35513738,1.451082458,-1.477727051,10.07420059,10.28488382,1.0,3.0
46.36517438,1.259181519,-1.59478363,10.04785538,10.25125703,1.0,3.0
46.37521137,1.230291595,-1.706900482,10.0355809,10.25378031,1.0,3.0
46.38524838,1.267115021,-1.842967529,9.977801056,10.22539113,1.0,3.0
46.39528538,1.280886383,-1.879940643,9.918374634,10.17590301,1.0,3.0
46.40532237,1.29645401,-1.87799469,9.858349457,10.11902718,1.0,3.0
46.41535938,1.295555878,-1.847458191,9.760303345,10.01773868,1.0,3.0
46.42539638,1.272204437,-1.761536865,9.64968338,9.891304545,1.0,3.0
46.43543337,1.223705292,-1.693578186,9.532926178,9.759218372,1.0,3.0
46.44547038,1.189276886,-1.637444916,9.549691315,9.76177287,1.0,3.0
46.45550738,1.123563538,-1.613345032,9.575587463,9.775333881,1.0,3.0
46.46554437,1.174607391,-1.642384644,9.554631042,9.765659435,1.0,3.0
46.47558146,1.288969574,-1.705403595,9.521100769,9.758135264,1.0,3.0
46.48561846,1.381477203,-1.868564301,9.650282135,9.926124979,1.0,3.0
46.49565446,1.499132538,-2.160606995,10.01387604,10.35342138,1.0,3.0
46.50569246,1.621128845,-2.408790894,10.42342438,10.82026377,1.0,3.0
46.51572946,1.792372742,-2.476899261,10.69974976,11.1279951,1.0,3.0
46.52576546,1.97858551,-2.56012619,11.00661163,11.47233831,1.0,3.0
46.53580246,2.133663025,-2.690056,11.3003009,11.81040726,1.0,3.0
46.54583946,2.302661591,-2.58826767,11.37783966,11.89355352,1.0,3.0
46.55587646,2.460882568,-2.335144043,11.35448822,11.8504533,1.0,3.0
46.56591346,2.621348877,-2.061962128,11.30000153,11.78190105,1.0,3.0
46.57595046,2.683320007,-1.764081573,11.12890732,11.58295162,1.0,3.0
46.58598746,2.701132965,-1.441352692,10.86081482,11.28410012,1.0,3.0
46.59602446,2.766696625,-1.0776091,10.4708757,10.88370753,1.0,3.0
46.60606146,2.795137482,-0.7485932922,10.06536896,10.47305293,1.0,3.0
46.61609846,2.772983551,-0.4334985352,9.762698364,10.15813162,1.0,3.0
46.62613546,2.70053421,-0.09116043091,9.557325439,9.931951712,1.0,3.0
46.63617246,2.597997437,0.3201841736,9.462722168,9.818106712,1.0,3.0
46.64620946,2.461331635,0.832868042,9.60178299,9.947163373,1.0,3.0
46.65624646,2.173031158,1.276844788,9.716594238,10.03815723,1.0,3.0
46.66628346,1.78668457,1.601070557,9.736203461,10.02742871,1.0,3.0
46.67632046,1.500180359,1.798809357,9.704918518,9.983571488,1.0,3.0
46.68635746,1.272354126,1.756746826,9.608518982,9.850313775,1.0,3.0
46.69639446,1.081051941,1.494043121,9.36183197,9.541736529,1.0,3.0
46.70643146,0.9084608459,1.139430542,8.932824097,9.050908762,1.0,3.0
46.71646846,0.8363108826,0.6933581543,8.518785095,8.587773921,1.0,3.0
46.72650546,0.8855584717,0.106129303,8.330776062,8.378383318,1.0,3.0
46.73654246,1.045575714,-0.4896318054,8.450527039,8.529031311,1.0,3.0
46.74657946,1.269809418,-0.9327104187,8.795409851,8.935412645,1.0,3.0
46.75661646,1.659299469,-1.067879333,9.618398438,9.818718323,1.0,3.0
46.76665346,1.878144379,-0.9511221313,10.7668103,10.97070024,1.0,3.0
46.77669046,1.794019318,-0.8496331787,11.87286026,12.03765727,1.0,3.0
46.78672746,1.58894577,-0.9857002258,12.66650986,12.80378169,1.0,3.0
46.79676446,1.336121521,-1.310225372,12.96873138,13.10304945,1.0,3.0
46.80680146,1.234632568,-1.733694763,12.86664368,13.04149281,1.0,3.0
46.81683846,1.191073151,-2.11555069,12.54945328,12.78213548,1.0,3.0
46.82687546,1.231189728,-2.420616302,12.15322723,12.45295722,1.0,3.0
46.83691246,1.346300354,-2.76370285,11.79187866,12.18601578,1.0,3.0
46.84694946,1.453627167,-3.081192627,11.31571884,11.81745628,1.0,3.0
46.85698646,1.507664795,-3.342848511,10.8584198,11.46093233,1.0,3.0
46.86702346,1.51410141,-3.568130035,10.45545776,11.15081396,1.0,3.0
46.87706046,1.519789581,-3.677702179,10.02869522,10.78934574,1.0,3.0
46.88709746,1.632355499,-3.706292725,9.70237381,10.51366957,1.0,3.0
46.89713446,1.734742584,-3.753744049,9.477092285,10.33998087,1.0,3.0
46.90717146,1.738035736,-3.750450897,9.19927002,10.08529717,1.0,3.0
46.91720846,1.608255615,-3.812871094,8.873996429,9.79143936,1.0,3.0
46.92724546,1.41575592,-3.870052185,8.502469025,9.448473329,1.0,3.0
46.93728246,1.270857239,-3.841311951,8.069718933,9.027243172,1.0,3.0
46.94731946,1.234632568,-3.787124634,7.790100403,8.74941683,1.0,3.0
46.95735646,1.166075134,-3.773802338,7.542814636,8.514421175,1.0,3.0
46.96739346,1.135838013,-3.751049652,7.27322525,8.261979607,1.0,3.0
46.97743046,1.202599182,-3.745361481,7.072342987,8.092713559,1.0,3.0
46.98746746,1.292412415,-3.723955994,6.938521271,7.980053604,1.0,3.0
46.99750446,1.322649536,-3.629801788,6.80634613,7.826315255,1.0,3.0
47.00754146,1.326990509,-3.477119293,6.685247955,7.651392201,1.0,3.0
47.01757846,1.311273193,-3.382815399,6.706054688,7.624568636,1.0,3.0
47.02761546,1.265318756,-3.251837769,6.960525513,7.786166954,1.0,3.0
47.03765246,1.066831512,-2.982847137,7.177125092,7.845166098,1.0,3.0
47.04768946,0.6456074524,-2.801274719,7.270381165,7.818081051,1.0,3.0
47.05772646,0.2350112915,-2.716550903,7.377707977,7.865459562,1.0,3.0
47.06776346,-0.02754272461,-2.662513275,7.373965759,7.839968531,1.0,3.0
47.07780046,-0.2466870117,-2.603984985,7.289391632,7.744470456,1.0,3.0
47.08783746,-0.2883004761,-2.599793701,7.27202774,7.728158378,1.0,3.0
47.09787446,-0.1050814819,-2.67134491,7.4065979,7.874313824,1.0,3.0
47.10791146,0.1017883301,-2.778821411,7.524552612,8.021913819,1.0,3.0
47.11794846,0.1257385254,-2.821482697,7.570057983,8.079749542,1.0,3.0
47.12798546,0.09026229858,-2.864293671,7.62080246,8.141802973,1.0,3.0
47.13802246,0.08412506104,-2.924318848,7.694149933,8.231564914,1.0,3.0
47.14805946,0.08652008057,-2.889141998,7.894732819,8.407225077,1.0,3.0
47.15809646,0.122744751,-2.768642578,8.174051971,8.631081834,1.0,3.0
47.16813346,0.3653901672,-2.658771057,8.474177856,8.888996785,1.0,3.0
47.17817046,0.680634613,-2.621947632,8.599317627,9.015882459,1.0,3.0
47.18820746,0.9419911194,-2.650837555,8.498876495,8.952384526,1.0,3.0
47.19824446,1.081501007,-2.741399231,8.363108826,8.867158699,1.0,3.0
47.20828146,1.211730194,-2.828368378,8.328081665,8.878338919,1.0,3.0
47.21831746,1.394500122,-2.933000793,8.351582794,8.960806851,1.0,3.0
47.22835446,1.602717133,-3.028951263,8.420439606,9.091042356,1.0,3.0
47.23839146,1.721420288,-3.060535583,8.672814789,9.35670253,1.0,3.0
47.24842846,1.857337646,-2.986140289,9.088949432,9.745549689,1.0,3.0
47.25846546,2.033072205,-2.913990326,9.546248474,10.18604841,1.0,3.0
47.26850246,2.148182831,-2.837798767,9.96088623,10.57766731,1.0,3.0
47.27853946,2.108814697,-2.833308105,10.2611618,10.85201252,1.0,3.0
47.28857646,2.028431854,-2.889890442,10.45815216,11.03806818,1.0,3.0
47.29861346,1.989961853,-2.840493164,10.53524185,11.09142328,1.0,3.0
