"Time (s)","Acceleration x (m/s^2)","Acceleration y (m/s^2)","Acceleration z (m/s^2)","Absolute acceleration (m/s^2)"
4.111999646E-3,6.475534058E-1,3.518283691E0,7.264543304E0,8.097606743E0
1.414899994E-2,6.794371033E-1,3.535797272E0,7.764952698E0,8.559088008E0
2.418600023E-2,7.238946533E-1,3.538192291E0,7.969876556E0,8.749957742E0
3.422300052E-2,7.955955505E-1,3.568429413E0,8.065228271E0,8.855200044E0
4.425999988E-2,6.122268677E-1,3.588936768E0,8.075556793E0,8.858324129E0
5.429700017E-2,-1.284329224E-1,3.898043976E0,8.130941620E0,9.017951734E0
6.433499977E-2,6.890171814E-1,4.189188538E0,8.612789612E0,9.602301296E0
7.437200006E-2,-2.038760376E-1,3.575464783E0,7.996521149E0,8.761841378E0
8.440900035E-2,-7.432044983E-1,2.985242157E0,7.108268280E0,7.745418104E0
9.444599971E-2,-2.116598511E-1,2.666704559E0,6.870562592E0,7.372973852E0
1.044830000E-1,-8.125103760E-1,1.837279358E0,5.835016022E0,6.171157146E0
1.145200003E-1,-1.046324158E0,1.565594330E0,5.074297943E0,5.412428241E0
1.245569997E-1,-5.258564758E-1,1.665287018E0,4.455784149E0,4.785782932E0
1.345939999E-1,1.420545959E-1,2.729723511E0,5.027744751E0,5.722742982E0
1.446310002E-1,1.469344482E0,3.552861786E0,9.059311066E0,9.841387964E0
1.546680005E-1,2.066303101E0,3.187022552E0,1.010728180E1,1.079740092E1
1.647060001E-1,1.844464417E0,2.291884003E0,9.193581848E0,9.652809356E0
1.747430004E-1,5.629792786E-1,1.462758179E0,8.870703278E0,9.008106560E0
1.847799998E-1,-7.674540710E-1,8.750802612E-1,9.397308197E0,9.469115722E0
1.948170001E-1,-1.661544800E0,4.665797424E-1,9.748477936E0,9.900063123E0
2.048540004E-1,-1.594783630E0,3.367996216E-2,9.215436401E0,9.352472253E0
2.148909997E-1,-1.666185150E0,2.454895020E-2,8.587791595E0,8.747967769E0
2.249280000E-1,-1.501677246E0,7.765850830E-1,7.612120514E0,7.797595633E0
2.349650003E-1,-1.017883301E0,8.955876160E-1,7.113357697E0,7.241410174E0
2.450019997E-1,-4.201762390E-1,8.330177307E-1,7.330256653E0,7.389393020E0
2.550400002E-1,8.033793640E-1,8.493338013E-1,7.260801086E0,7.354319732E0
2.650770005E-1,2.405497742E0,1.553619232E0,6.930438080E0,7.498741500E0
2.751139998E-1,3.755390625E0,1.569635925E0,7.244035950E0,8.309198068E0
2.851510001E-1,3.851490784E0,1.600621490E0,6.057752838E0,7.354749476E0
2.951880004E-1,3.575464783E0,1.753303986E0,6.059249725E0,7.250691726E0
3.052249998E-1,3.139421539E0,1.631157990E0,7.732470245E0,8.503395797E0
3.152620001E-1,2.624043274E0,1.534010010E0,9.057514801E0,9.553918787E0
3.252990004E-1,2.857707367E0,1.950294342E0,1.079465240E1,1.133554851E1
3.353359997E-1,1.923350372E0,2.326162720E0,1.249436783E1,1.285377521E1
3.453740003E-1,1.001417542E0,2.788102112E0,1.284763321E1,1.318476506E1
3.554109996E-1,1.167572021E-1,2.928210754E0,1.008632538E1,1.050342849E1
3.654479999E-1,-3.493734741E-1,2.705473938E0,7.869285736E0,8.328703924E0
3.754850002E-1,-1.327738953E-1,2.509531403E0,7.850724335E0,8.243133467E0
3.855220005E-1,3.373983765E-1,2.128274231E0,8.253985748E0,8.530631254E0
3.955589999E-1,5.363346863E-1,1.554966431E0,8.050708466E0,8.217023932E0
4.055960001E-1,2.399061127E0,2.589465179E0,4.934937744E0,6.067489987E0
4.156330004E-1,1.863624573E0,5.774392090E0,9.523795166E0,1.129244769E1
4.256699998E-1,-3.193010101E0,3.183280334E0,1.015054184E1,1.110684865E1
4.357063333E-1,-3.943549347E0,1.246457977E0,4.902904358E0,6.414336293E0
4.457443338E-1,-1.406475220E0,1.583706665E0,2.506986694E0,3.281963076E0
4.557813331E-1,2.001637573E0,6.691085815E-1,1.645977173E0,2.676471581E0
4.658183334E-1,8.896000671E-1,-1.199306030E0,5.407954102E0,5.610320026E0
4.758553337E-1,-6.286926270E-2,-1.864073639E0,8.753946075E0,8.950435462E0
4.858923331E-1,7.358697510E-1,-1.609902191E0,1.117231705E1,1.131167351E1
4.959293334E-1,1.625320129E0,-1.300345917E0,1.257295441E1,1.274408677E1
5.059663337E-1,2.269730072E0,-5.176235962E-1,1.307396255E1,1.327961241E1
5.160033330E-1,2.163451080E0,-4.146377563E-2,1.333052902E1,1.350500810E1
5.260403333E-1,1.578916626E0,1.496887207E-2,1.317200867E1,1.326631125E1
5.360783339E-1,6.526428223E-2,-1.700463867E-1,1.282757492E1,1.282886798E1
5.461153332E-1,-1.716630249E0,-2.564167786E-1,1.279584091E1,1.291302109E1
5.561523335E-1,-3.003504181E0,-5.418731689E-2,1.292562103E1,1.327010372E1
5.661893338E-1,-3.489842834E0,8.262817383E-2,1.250290009E1,1.298107626E1
5.762263332E-1,-3.136727142E0,-5.388793945E-3,1.251652176E1,1.290358102E1
5.862633334E-1,-2.547252960E0,-6.691085815E-2,1.272982819E1,1.298235342E1
5.963003337E-1,-2.128723297E0,1.694476318E-1,1.255334518E1,1.273368174E1
6.063373331E-1,-2.083517303E0,7.689509583E-1,1.280108002E1,1.299230463E1
6.163743334E-1,-2.365979919E0,9.334588623E-1,1.367122055E1,1.390580734E1
6.264123330E-1,-3.053799591E0,7.283853149E-1,1.477188171E1,1.510181203E1
6.364493333E-1,-4.171375580E0,4.083508301E-1,1.572734482E1,1.627625570E1
6.464863336E-1,-5.314248962E0,1.393601990E-1,1.601923782E1,1.687828912E1
6.565233339E-1,-5.113815765E0,5.022056580E-1,1.510733414E1,1.595728257E1
6.665603332E-1,-3.625610504E0,9.407936096E-1,1.392299698E1,1.441804387E1
6.765973335E-1,-2.361938324E0,1.224603424E0,1.337783066E1,1.363982255E1
6.866343338E-1,-1.849254456E0,1.698368225E0,1.363828903E1,1.386748443E1
6.966713332E-1,-1.708696747E0,2.074086914E0,1.427745987E1,1.452815685E1
7.067083335E-1,-1.640289001E0,2.429148560E0,1.482756592E1,1.511449707E1
7.167453337E-1,-1.670825500E0,2.876568146E0,1.519894363E1,1.555873355E1
7.267833333E-1,-1.689237213E0,3.276386719E0,1.510987885E1,1.555302771E1
7.368203336E-1,-1.520987091E0,3.550766144E0,1.454570206E1,1.504987675E1
7.468573330E-1,-1.618284760E0,3.594774628E0,1.366313736E1,1.422049833E1
7.568943333E-1,-1.908231812E0,3.436254272E0,1.268552032E1,1.328049766E1
7.669313336E-1,-2.432292023E0,3.214864655E0,1.186268143E1,1.252895087E1
7.769683329E-1,-2.821482697E0,3.183280334E0,1.115210907E1,1.193581061E1
7.870053332E-1,-3.000510406E0,3.269501038E0,1.049856812E1,1.139792228E1
7.970423335E-1,-3.057841187E0,3.172802124E0,9.894274750E0,1.083114670E1
8.070793338E-1,-3.020119629E0,2.899171143E0,9.513915710E0,1.039427285E1
8.171173334E-1,-2.939886475E0,2.606230316E0,9.322463837E0,1.011650636E1
8.271543337E-1,-2.864143982E0,2.211201782E0,9.129814453E0,9.820704966E0
8.371913331E-1,-2.771037598E0,1.756597137E0,9.099128265E0,9.672560057E0
8.472283334E-1,-2.706970825E0,1.288819885E0,9.094936981E0,9.576357681E0
8.572653336E-1,-2.810405731E0,8.652008057E-1,9.176667023E0,9.636294436E0
8.673023330E-1,-2.921025696E0,5.513035583E-1,9.272916870E0,9.737726326E0
8.773393333E-1,-2.888842621E0,2.386038208E-1,9.267528076E0,9.710273946E0
8.873763336E-1,-2.674638062E0,6.197113037E-2,9.261390839E0,9.640066880E0
8.974133329E-1,-2.480940857E0,8.981323242E-3,9.215586090E0,9.543698192E0
9.074513335E-1,-2.310894470E0,2.799179077E-2,9.168583832E0,9.455366004E0
9.174883338E-1,-2.158361664E0,1.082249451E-1,9.180259552E0,9.431193093E0
9.275253331E-1,-2.091001740E0,2.412982178E-1,9.197922821E0,9.435692732E0
9.375623334E-1,-2.156715088E0,2.969824219E-1,9.139993286E0,9.395695600E0
9.475993337E-1,-2.230212250E0,3.261717224E-1,9.107959900E0,9.382705804E0
9.576363331E-1,-2.298320618E0,2.163002014E-1,9.140142975E0,9.427156360E0
9.676733334E-1,-2.155367889E0,1.010398865E-1,9.041647797E0,9.295548111E0
9.777103337E-1,-1.836680603E0,1.669029236E-1,8.811276855E0,9.002213730E0
9.877473330E-1,-1.635199585E0,1.890568542E-1,8.774004364E0,8.927080864E0
9.977843333E-1,-1.663191376E0,6.316864014E-2,9.180858307E0,9.330506689E0
1.007822334E0,-1.937121735E0,-9.984237671E-2,9.553433533E0,9.748358907E0
1.017859333E0,-2.323019257E0,-3.095562744E-1,9.733059998E0,1.001122872E1
1.027896333E0,-2.531835022E0,-5.173242188E-1,9.704319763E0,1.004249147E1
1.037933334E0,-2.474953308E0,-7.327262878E-1,9.613159332E0,9.953648278E0
1.047970333E0,-2.254461823E0,-9.141490173E-1,9.466015320E0,9.773623308E0
1.058007333E0,-1.918560333E0,-1.132694550E0,9.182804260E0,9.449220326E0
1.068044334E0,-1.547182617E0,-1.216071167E0,8.810827789E0,9.027917228E0
1.078081333E0,-1.109941864E0,-1.240320740E0,8.463400269E0,8.625515091E0
1.088118333E0,-7.084767151E-1,-1.200054474E0,8.251590729E0,8.368441883E0
1.098156333E0,-4.254153442E-1,-1.159788208E0,8.274493103E0,8.366201230E0
1.108193333E0,-2.439926147E-1,-1.170266418E0,8.498427429E0,8.582093256E0
1.118230334E0,-2.356100464E-1,-1.123413849E0,8.780440979E0,8.855151865E0
1.128267334E0,-3.580554199E-1,-1.073268127E0,9.113199005E0,9.183164175E0
1.138304333E0,-4.727169800E-1,-9.249266052E-1,9.478888550E0,9.535632056E0
1.148341333E0,-5.285508728E-1,-6.997947693E-1,9.679321747E0,9.718968475E0
1.158378334E0,-4.939727783E-1,-5.712121582E-1,9.699829102E0,9.729181725E0
1.168415333E0,-4.941224670E-1,-5.269042969E-1,9.671388245E0,9.698326440E0
1.178452333E0,-5.939648438E-1,-4.646337891E-1,9.652826843E0,9.682238629E0
1.188490333E0,-6.670129395E-1,-4.421804810E-1,9.571545868E0,9.604942485E0
1.198527333E0,-6.831793213E-1,-4.894821167E-1,9.514963531E0,9.552008047E0
1.208564334E0,-6.786886597E-1,-5.875282288E-1,9.492959290E0,9.535307221E0
1.218601333E0,-6.864724731E-1,-6.698570251E-1,9.421857147E0,9.470551462E0
1.228638333E0,-6.843768311E-1,-7.304809570E-1,9.365424500E0,9.418765850E0
1.238675334E0,-7.207511902E-1,-7.851173401E-1,9.346114655E0,9.406686486E0
1.248712334E0,-8.746311951E-1,-8.270301819E-1,9.442065125E0,9.518484778E0
1.258749333E0,-1.041085052E0,-8.628057861E-1,9.488468628E0,9.584327249E0
1.268786334E0,-1.190324707E0,-9.394464111E-1,9.483379211E0,9.603848902E0
1.278823334E0,-1.326242065E0,-9.740245056E-1,9.475296021E0,9.617113727E0
1.288861333E0,-1.433868256E0,-9.948312378E-1,9.456435242E0,9.616123691E0
1.298898334E0,-1.522184601E0,-1.088686066E0,9.476194153E0,9.659220410E0
1.308935333E0,-1.593735809E0,-1.212927704E0,9.492510223E0,9.701491524E0
1.318972333E0,-1.595382385E0,-1.310225372E0,9.497449951E0,9.719233049E0
1.329009334E0,-1.544338531E0,-1.346450043E0,9.519753571E0,9.737741897E0
1.339046333E0,-1.438508606E0,-1.358275452E0,9.552086334E0,9.754823040E0
1.349083333E0,-1.398392029E0,-1.308429108E0,9.542955322E0,9.733215465E0
1.359120334E0,-1.502874756E0,-1.187031555E0,9.532327423E0,9.722805282E0
1.369157334E0,-1.512155457E0,-1.055904236E0,9.550140381E0,9.726599055E0
1.379195333E0,-1.438658295E0,-9.749226379E-1,9.528136139E0,9.685328602E0
1.389232334E0,-1.380130005E0,-1.060993652E0,9.742340698E0,9.896649364E0
1.399269333E0,-1.340312805E0,-1.264720001E0,1.007405090E1,1.024121363E1
1.409306333E0,-1.408570862E0,-1.473835144E0,1.054347473E1,1.073876722E1
1.419343334E0,-1.608704681E0,-1.683399353E0,1.114956436E1,1.139010753E1
1.429380333E0,-1.906884613E0,-1.895807648E0,1.172317154E1,1.202759521E1
1.439417709E0,-2.216141510E0,-2.141596527E0,1.216086136E1,1.254528867E1
1.449454708E0,-2.308798828E0,-2.264191589E0,1.208422073E1,1.250941671E1
1.459491708E0,-2.303559723E0,-2.473306732E0,1.179876434E1,1.227332366E1
1.469529709E0,-2.387235718E0,-2.986439667E0,1.177616135E1,1.238126376E1
1.479566708E0,-2.429597626E0,-3.527714081E0,1.183453995E1,1.258586696E1
1.489603708E0,-2.340981903E0,-3.789968719E0,1.172541687E1,1.254310408E1
1.499640709E0,-2.254162445E0,-3.606749725E0,1.144490021E1,1.220965326E1
1.509677708E0,-2.123633881E0,-3.065924377E0,1.095407089E1,1.157157648E1
1.519714708E0,-1.919608154E0,-2.289039917E0,1.048644333E1,1.090367337E1
1.529751709E0,-1.619482269E0,-1.531465302E0,1.014455429E1,1.038653410E1
1.539788708E0,-1.290915527E0,-8.825646973E-1,9.950258331E0,1.007238920E1
1.549825708E0,-1.097817078E0,-4.439767456E-1,9.861193542E0,9.932041873E0
1.559862709E0,-1.098116455E0,-4.134402466E-1,9.761051788E0,9.831323644E0
1.569900708E0,-1.216520233E0,-5.556445312E-1,9.641899567E0,9.734212324E0
1.579937709E0,-1.402283936E0,-8.313711548E-1,9.399403839E0,9.539725927E0
1.589974709E0,-1.565294952E0,-1.247056732E0,9.039552155E0,9.258444898E0
1.600011708E0,-1.695524139E0,-1.613494720E0,8.566835175E0,8.880812588E0
1.610048709E0,-1.931882629E0,-1.803749084E0,8.117319946E0,8.536777165E0
1.620085709E0,-2.177671509E0,-1.884281616E0,7.827672272E0,8.340576935E0
1.630122708E0,-2.264490967E0,-1.801204376E0,7.780520325E0,8.301129626E0
1.640159708E0,-2.254461823E0,-1.621577911E0,7.862998810E0,8.338996541E0
1.650196709E0,-2.113604736E0,-1.361269226E0,8.115224304E0,8.495719181E0
1.660234708E0,-1.889670410E0,-1.180894318E0,8.562494202E0,8.847693067E0
1.670271709E0,-1.770967255E0,-1.107247467E0,8.975635071E0,9.215440678E0
1.680308708E0,-1.798509979E0,-1.038989410E0,9.273216248E0,9.502982517E0
1.690345708E0,-1.906884613E0,-9.785151672E-1,9.439071350E0,9.679347541E0
1.700382709E0,-2.052082672E0,-9.713301086E-1,9.542955322E0,9.809307914E0
1.710419709E0,-2.169438629E0,-1.055904236E0,9.606722717E0,9.905075421E0
1.720456708E0,-2.191143494E0,-1.110690308E0,9.617500305E0,9.926281020E0
1.730493709E0,-2.089205475E0,-1.235381012E0,9.498647461E0,9.803838501E0
1.740530709E0,-2.050735474E0,-1.350192261E0,9.538015594E0,9.848973378E0
1.750567708E0,-1.991758118E0,-1.437460785E0,9.658215637E0,9.965667223E0
1.760605709E0,-1.901795197E0,-1.426084442E0,9.719288635E0,1.000575401E1
1.770642708E0,-1.835483093E0,-1.331181793E0,9.824669495E0,1.008291495E1
1.780679708E0,-1.800306244E0,-1.294957123E0,9.953401794E0,1.019746164E1
1.790716709E0,-1.767374725E0,-1.268013153E0,1.002435425E1,1.025763856E1
1.800753708E0,-1.833836517E0,-1.226250000E0,9.987680511E0,1.022841177E1
1.810790708E0,-1.979333954E0,-1.188528442E0,9.926457825E0,1.019141441E1
1.820827709E0,-2.124082947E0,-1.183738403E0,9.864636383E0,1.015992204E1
1.830864708E0,-2.308798828E0,-1.161734161E0,9.715845795E0,1.005374745E1
1.840901708E0,-2.509531403E0,-1.104104004E0,9.534572754E0,9.920930960E0
1.850939709E0,-2.706970825E0,-1.115180969E0,9.359436951E0,9.806649768E0
1.860976708E0,-2.903362427E0,-1.202150116E0,9.213490448E0,9.734633250E0
1.871013708E0,-2.996917877E0,-1.295705566E0,8.986113281E0,9.560889163E0
1.881050709E0,-2.957100677E0,-1.333576813E0,8.690478058E0,9.276167334E0
1.891087708E0,-2.671045532E0,-1.401535492E0,8.565188599E0,9.080817237E0
1.901124708E0,-2.463427277E0,-1.415606232E0,8.656798096E0,9.111123324E0
1.911161709E0,-2.418520660E0,-1.270258484E0,8.833131409E0,9.245918520E0
1.921198708E0,-2.334694977E0,-1.046773224E0,9.021290131E0,9.377110986E0
1.931235708E0,-2.204016724E0,-8.294252014E-1,9.177265778E0,9.474589333E0
1.941273709E0,-2.127974854E0,-7.188052368E-1,9.464368744E0,9.727241832E0
1.951310708E0,-1.990859985E0,-6.084846497E-1,9.738149414E0,9.958179104E0
1.961347708E0,-1.843566284E0,-4.858895874E-1,9.875563660E0,1.005791146E1
1.971384709E0,-1.789828033E0,-4.251159668E-1,9.834399261E0,1.000497960E1
1.981421708E0,-1.870659943E0,-4.631369019E-1,9.803264008E0,9.990888330E0
1.991458708E0,-1.888622589E0,-5.789959717E-1,9.667795715E0,9.867543038E0
2.001495709E0,-1.908531189E0,-6.976991272E-1,9.515262909E0,9.729825466E0
2.011532708E0,-1.928888855E0,-8.650511169E-1,9.441915436E0,9.675675312E0
2.021569708E0,-1.918410645E0,-9.315129089E-1,9.491612091E0,9.728243202E0
2.031606709E0,-1.825004883E0,-9.286688232E-1,9.434880066E0,9.654534192E0
2.041644708E0,-1.749412079E0,-9.580078125E-1,9.383387146E0,9.593027464E0
2.051681709E0,-1.703757019E0,-9.861492920E-1,9.443711700E0,9.646707681E0
2.061718709E0,-1.707948303E0,-9.695338440E-1,9.453740845E0,9.655583837E0
2.071755708E0,-1.741179199E0,-8.663983154E-1,9.556576996E0,9.752461993E0
2.081792708E0,-1.794618073E0,-7.533833313E-1,9.769434357E0,9.961430024E0
2.091829709E0,-1.865121460E0,-6.460565186E-1,9.998009033E0,1.019098875E1
2.101866708E0,-1.936073914E0,-5.701643372E-1,1.009216324E1,1.029199827E1
2.111903708E0,-2.068698120E0,-6.080355835E-1,1.007464966E1,1.030280471E1
2.121940709E0,-2.165846100E0,-6.298901367E-1,1.000220032E1,1.025337321E1
2.131977708E0,-2.078577576E0,-6.840774536E-1,9.899663544E0,1.013862836E1
2.142015709E0,-1.871707764E0,-8.789721680E-1,9.761351166E0,9.977968661E0
2.152052708E0,-1.704804840E0,-1.062490540E0,9.745783539E0,9.950655379E0
2.162089708E0,-1.702858887E0,-1.093027039E0,9.934840393E0,1.013881108E1
2.172126709E0,-1.809586945E0,-1.076860657E0,1.018018021E1,1.039568674E1
2.182163709E0,-2.077230377E0,-1.359772339E0,1.071741302E1,1.100121851E1
2.192200708E0,-2.711461487E0,-2.136656799E0,1.166599045E1,1.216604532E1
2.202237708E0,-3.430865479E0,-3.050656128E0,1.241398499E1,1.323572302E1
2.212274709E0,-4.292473755E0,-3.788471832E0,1.266291733E1,1.389702576E1
2.222311708E0,-5.276228027E0,-3.951333160E0,1.264615219E1,1.426102315E1
2.232349709E0,-5.888305206E0,-3.424428864E0,1.232851273E1,1.408513675E1
2.242386708E0,-5.803581390E0,-2.621947632E0,1.192076065E1,1.351520258E1
2.252423708E0,-4.995262299E0,-1.658401337E0,1.182690582E1,1.294521695E1
2.262460709E0,-3.634442139E0,-7.414082336E-1,1.205413330E1,1.261193821E1
2.272497708E0,-2.024240570E0,-1.983375549E-1,1.247760269E1,1.264228842E1
2.282534708E0,-6.908134460E-1,-3.562591553E-2,1.287293060E1,1.289150242E1
2.292571709E0,1.630110168E-1,-7.304809570E-2,1.280167877E1,1.280292498E1
2.302608709E0,4.827461243E-1,-2.091151428E-1,1.202793777E1,1.203943770E1
2.312645708E0,4.474195862E-1,-5.677693176E-1,1.070409073E1,1.072847168E1
2.322682709E0,2.489323425E-1,-1.084943848E0,9.412277069E0,9.477870546E0
2.332720708E0,1.728904724E-1,-1.579066315E0,8.210576019E0,8.362828475E0
2.342757708E0,2.743794250E-1,-1.843117218E0,6.926995239E0,7.173257851E0
2.352794709E0,3.385958862E-1,-2.021845551E0,5.732778625E0,6.088288542E0
2.362831708E0,3.617976379E-1,-2.144290924E0,4.867428131E0,5.331110364E0
2.372868708E0,9.385482788E-2,-2.029779053E0,4.368365936E0,4.817824476E0
2.382905709E0,-4.153862000E-1,-1.630858612E0,4.232598267E0,4.554902150E0
2.392942708E0,-8.253836060E-1,-1.120869141E0,4.438420258E0,4.651578239E0
2.402979708E0,-9.728269958E-1,-5.659730530E-1,4.755011902E0,4.886394995E0
2.413016709E0,-8.878038025E-1,1.197509766E-3,5.040617981E0,5.118205414E0
2.423054708E0,-6.691085815E-1,3.914360046E-1,5.523663483E0,5.577794072E0
2.433091208E0,-4.465214539E-1,5.158273315E-1,5.974376221E0,6.013204676E0
2.443128209E0,-3.441343689E-1,5.391787720E-1,6.446793823E0,6.478448334E0
2.453165208E0,-2.591111755E-1,4.659809875E-1,7.320975952E0,7.340365507E0
2.463202208E0,-3.362008667E-1,9.220825195E-2,8.313262482E0,8.320568879E0
2.473239209E0,-4.945715332E-1,-4.397854614E-1,9.154363403E0,9.178255911E0
2.483276209E0,-6.902146912E-1,-1.100212097E0,9.767189026E0,9.853164184E0
2.493313208E0,-9.815089417E-1,-1.667083282E0,1.014919464E1,1.033192520E1
2.503350209E0,-1.204245758E0,-1.968855743E0,1.036684204E1,1.062064097E1
2.513387209E0,-1.258882141E0,-2.043849792E0,1.037447617E1,1.064856150E1
2.523425208E0,-1.256337433E0,-1.941163330E0,1.053434372E1,1.078512385E1
2.533462209E0,-1.280437317E0,-1.797013092E0,1.081336349E1,1.103619526E1
2.543499208E0,-1.313219147E0,-1.704355774E0,1.117875366E1,1.138393195E1
2.553536208E0,-1.250948639E0,-1.672771454E0,1.162317947E1,1.180937500E1
2.563573209E0,-1.137334900E0,-1.610650635E0,1.208781326E1,1.224756938E1
2.573610208E0,-9.822573853E-1,-1.528321838E0,1.246278351E1,1.259450555E1
2.583647208E0,-8.936416626E-1,-1.493743744E0,1.262010635E1,1.273958203E1
2.593684209E0,-7.851173401E-1,-1.517095184E0,1.254211853E1,1.265791153E1
2.603721208E0,-6.789880371E-1,-1.617386627E0,1.213616272E1,1.226227588E1
2.613758208E0,-6.312373352E-1,-1.573527832E0,1.127620102E1,1.140294523E1
2.623796209E0,-6.191125488E-1,-1.423988800E0,1.033540741E1,1.045139659E1
2.633833208E0,-5.287005615E-1,-1.361418915E0,9.601782990E0,9.712220257E0
2.643870208E0,-4.661306763E-1,-1.353784790E0,8.977581024E0,9.091038011E0
2.653907209E0,-4.671784973E-1,-1.339863739E0,8.470136261E0,8.588172033E0
2.663944208E0,-5.489085388E-1,-1.292113037E0,8.159232788E0,8.279126547E0
2.673981208E0,-6.743476868E-1,-1.168021088E0,8.051606598E0,8.163785082E0
2.684018209E0,-8.246351624E-1,-1.070573730E0,8.011490021E0,8.124661446E0
2.694055208E0,-9.478289795E-1,-1.037941589E0,7.995323639E0,8.117937091E0
2.704092208E0,-1.057850189E0,-1.012344818E0,7.930209045E0,8.064248543E0
2.714129209E0,-1.279988251E0,-9.892927551E-1,7.846233673E0,8.011270369E0
2.724167208E0,-1.595232697E0,-9.608518982E-1,7.806865540E0,8.025905138E0
2.734204208E0,-2.217488708E0,-9.370513916E-1,7.804171143E0,8.167031817E0
2.744241209E0,-2.761307831E0,-8.930429077E-1,8.056845703E0,8.563592077E0
2.754278208E0,-3.079995117E0,-9.226812744E-1,8.509654083E0,9.096808411E0
2.764315208E0,-3.262465668E0,-1.102158051E0,8.871302032E0,9.516219541E0
2.774352209E0,-2.936293945E0,-1.297052765E0,9.073681183E0,9.624752372E0
2.784389208E0,-2.249522095E0,-1.469494171E0,9.194030914E0,9.578620320E0
2.794426208E0,-1.405427399E0,-1.542242889E0,9.448352051E0,9.676006189E0
2.804463209E0,-5.294490051E-1,-1.549427948E0,9.686057739E0,9.823479920E0
2.814501208E0,1.631607056E-1,-1.614991608E0,9.843380585E0,9.976319995E0
2.824538209E0,5.769003296E-1,-1.725761261E0,9.904453583E0,1.007021681E1
2.834575209E0,5.996530151E-1,-1.787582703E0,9.901908875E0,1.007982316E1
2.844612208E0,2.441423035E-1,-1.786385193E0,9.827962646E0,9.991978148E0
2.854649208E0,-2.254312134E-1,-1.731299744E0,9.654174042E0,9.810774407E0
2.864686209E0,-7.092251587E-1,-1.702110443E0,9.524393921E0,9.701250427E0
2.874723208E0,-1.012943573E0,-1.722468109E0,9.591903534E0,9.797834683E0
2.884760208E0,-1.051413574E0,-1.751208344E0,9.862540741E0,1.007183752E1
2.894797209E0,-9.874964905E-1,-1.786534882E0,1.004141876E1,1.024680179E1
2.904834208E0,-1.023571472E0,-1.701511688E0,1.017179764E1,1.036379794E1
2.914872209E0,-1.024170227E0,-1.591340790E0,1.011985565E1,1.029527895E1
2.924909208E0,-1.166075134E0,-1.533560944E0,9.926008759E0,1.011124079E1
2.934946208E0,-1.301693115E0,-1.457818451E0,9.662556610E0,9.858227013E0
2.944983209E0,-1.428629150E0,-1.321302338E0,9.347162476E0,9.547579141E0
2.955020209E0,-1.419198761E0,-1.236129456E0,9.040300598E0,9.234131040E0
2.965057208E0,-1.181792450E0,-1.246158600E0,8.826694794E0,8.992223620E0
2.975094208E0,-6.965016174E-1,-1.396895142E0,8.722511444E0,8.861074226E0
2.985131209E0,-1.248403931E-1,-1.569037170E0,8.833131409E0,8.972272469E0
2.995168208E0,1.086740112E-1,-1.667532349E0,9.374555511E0,9.522329821E0
3.005205208E0,-1.213975525E-1,-1.613794098E0,1.003378464E1,1.016345920E1
3.015243208E0,-7.837701416E-1,-1.463955688E0,1.041399399E1,1.054555511E1
3.025280208E0,-1.578617249E0,-1.303040314E0,1.064316742E1,1.083821753E1
3.035317209E0,-2.270777893E0,-1.201401672E0,1.069945038E1,1.100354655E1
3.045354208E0,-2.645299072E0,-1.119072876E0,1.041743683E1,1.080615201E1
3.055391208E0,-2.762355652E0,-8.834628296E-1,1.002540207E1,1.043646501E1
3.065428209E0,-2.771037598E0,-7.589218140E-1,9.722731476E0,1.013834893E1
3.075465209E0,-2.820883942E0,-9.404942322E-1,9.577234039E0,1.002822654E1
3.085502208E0,-2.940036163E0,-1.287622375E0,9.576186218E0,1.009975874E1
3.095539209E0,-3.086731110E0,-1.548978882E0,9.551487579E0,1.015668054E1
3.105576209E0,-3.247945862E0,-1.628164215E0,9.414522400E0,1.009124884E1
3.115614208E0,-3.497626648E0,-1.618883514E0,9.351054382E0,1.011416799E1
3.125651209E0,-3.713028717E0,-1.514700165E0,9.460626526E0,1.027542472E1
3.135688208E0,-3.700305176E0,-1.389710083E0,9.683662720E0,1.045929616E1
3.145725208E0,-3.563040619E0,-1.291813660E0,9.951306152E0,1.064859311E1
3.155762209E0,-3.406466217E0,-1.237626343E0,1.013856674E1,1.076690608E1
3.165799208E0,-3.293900299E0,-1.256786499E0,1.012898666E1,1.072500174E1
3.175836208E0,-3.280128937E0,-1.204994202E0,1.002944366E1,1.062078138E1
3.185873209E0,-3.383863220E0,-1.121767273E0,9.866881714E0,1.049115088E1
3.195910209E0,-3.572620697E0,-1.040336609E0,9.727222137E0,1.041464207E1
3.205947208E0,-3.809727631E0,-9.416917419E-1,9.640103302E0,1.040828514E1
3.215985209E0,-3.970643005E0,-8.849597168E-1,9.658365326E0,1.048013265E1
3.226022208E0,-3.976181488E0,-9.319619751E-1,9.714797974E0,1.053830499E1
3.236059208E0,-4.007466431E0,-9.024732971E-1,9.928553467E0,1.074478567E1
3.246096209E0,-3.979025574E0,-7.628137207E-1,1.016775604E1,1.094521778E1
3.256133208E0,-3.953877869E0,-8.045768738E-1,1.033256332E1,1.109244603E1
3.266170208E0,-4.016747131E0,-9.559121704E-1,1.040336609E1,1.119276782E1
3.276207209E0,-4.049079895E0,-1.171763306E0,1.037492523E1,1.119853342E1
3.286244208E0,-3.986809387E0,-1.364113312E0,1.029544052E1,1.112436739E1
3.296281208E0,-3.793112183E0,-1.485810242E0,1.013617172E1,1.092416172E1
3.306319209E0,-3.369493103E0,-1.582958221E0,9.998757477E0,1.066932011E1
3.316356208E0,-2.953807526E0,-1.642833710E0,9.945318604E0,1.050396323E1
3.326393208E0,-2.611020355E0,-1.687590637E0,9.906399536E0,1.038278100E1
3.336430209E0,-2.309547272E0,-1.676064606E0,9.835147705E0,1.024076811E1
3.346467208E0,-2.052082672E0,-1.623823242E0,9.692644043E0,1.003968096E1
3.356504208E0,-1.847158813E0,-1.443298645E0,9.614057465E0,9.895716629E0
3.366541209E0,-1.816921692E0,-1.198258209E0,9.530381470E0,9.775745400E0
3.376578208E0,-1.872306519E0,-9.562115479E-1,9.556876373E0,9.785384930E0
3.386615208E0,-1.991758118E0,-8.110134888E-1,9.649833069E0,9.886562675E0
3.396652209E0,-2.116748199E0,-6.957531738E-1,9.695937195E0,9.948662900E0
3.406690208E0,-2.225272522E0,-6.483018494E-1,9.722881165E0,9.995326469E0
3.416727209E0,-2.337539063E0,-6.494993591E-1,9.666598206E0,9.966396498E0
3.426764209E0,-2.367776184E0,-6.527925110E-1,9.606722717E0,9.915726070E0
3.436801500E0,-2.288441162E0,-6.683601379E-1,9.504784698E0,9.799214274E0
3.446838500E0,-2.169588318E0,-6.340814209E-1,9.386231232E0,9.654558998E0
3.456875500E0,-2.079924774E0,-5.436694336E-1,9.297615509E0,9.542919767E0
3.466912500E0,-1.982627106E0,-4.299060059E-1,9.372310181E0,9.589360121E0
3.476949500E0,-1.988015900E0,-3.888912964E-1,9.510622559E0,9.723959333E0
3.486986500E0,-1.972897339E0,-2.877017212E-1,9.545649719E0,9.751642157E0
3.497023501E0,-1.886077881E0,-1.345701599E-1,9.584868164E0,9.769600638E0
3.507061500E0,-1.925446014E0,-2.245330811E-2,9.681567078E0,9.871199906E0
3.517098500E0,-2.017354889E0,5.538482666E-3,9.749226379E0,9.955760464E0
3.527135500E0,-2.083816681E0,-1.315763855E-1,9.903555450E0,1.012126548E1
3.537172500E0,-2.206561432E0,-2.812651062E-1,1.003348526E1,1.027710319E1
3.547209500E0,-2.307751007E0,-3.291654968E-1,1.005563919E1,1.032230324E1
3.557246500E0,-2.368674316E0,-3.854484558E-1,1.012524445E1,1.040575627E1
3.567283500E0,-2.454445953E0,-4.611909485E-1,1.023227188E1,1.053263452E1
3.577320500E0,-2.414479065E0,-5.656736755E-1,1.028750702E1,1.058217825E1
3.587357500E0,-2.386038208E0,-6.159690857E-1,1.024245071E1,1.053472320E1
3.597394500E0,-2.312391357E0,-5.858816528E-1,1.011581406E1,1.039327211E1
3.607432500E0,-2.202819214E0,-5.644761658E-1,9.904453583E0,1.016214774E1
3.617469500E0,-2.069446564E0,-5.619314575E-1,9.676028595E0,9.910797416E0
3.627506500E0,-1.948797455E0,-5.454656982E-1,9.482630768E0,9.696165769E0
3.637543500E0,-1.865121460E0,-5.222639465E-1,9.279203796E0,9.479190935E0
3.647580500E0,-1.799707489E0,-5.400769043E-1,9.254056091E0,9.442890672E0
3.657617500E0,-1.721719666E0,-6.357279968E-1,9.191785583E0,9.373227347E0
3.667654500E0,-1.712738342E0,-6.836283875E-1,9.139095154E0,9.323297734E0
3.677691500E0,-1.844763794E0,-6.641688538E-1,9.146429901E0,9.354221168E0
3.687728500E0,-1.956281891E0,-5.608836365E-1,9.239835663E0,9.461299719E0
3.697765500E0,-1.973795471E0,-5.019062805E-1,9.203311615E0,9.425960066E0
3.707802500E0,-1.996099091E0,-4.987628174E-1,9.125024414E0,9.354103190E0
3.717840500E0,-1.979783020E0,-4.800517273E-1,9.096433868E0,9.321754105E0
3.727877500E0,-1.930535431E0,-4.715194702E-1,9.070537720E0,9.285685337E0
3.737914500E0,-1.953288116E0,-4.119433594E-1,9.065448303E0,9.282638889E0
3.747951500E0,-1.942809906E0,-2.688409424E-1,9.188642120E0,9.395633550E0
3.757988500E0,-1.854792938E0,-2.002835083E-1,9.377100220E0,9.560877515E0
3.768025500E0,-1.757495270E0,-2.415975952E-1,9.543853455E0,9.707332166E0
3.778062500E0,-1.688638458E0,-2.733316040E-1,9.820478210E0,9.968350028E0
3.788099500E0,-1.529818726E0,-2.432441711E-1,9.996362457E0,1.011566980E1
3.798136500E0,-1.346150665E0,-2.418969727E-1,1.002016296E1,1.011307577E1
3.808173500E0,-1.236877899E0,-2.582130432E-1,1.009635452E1,1.017511256E1
3.818211501E0,-1.389111328E0,-2.056723022E-1,1.032732422E1,1.042235851E1
3.828248500E0,-1.881138153E0,3.592529297E-3,1.071441925E1,1.087830288E1
3.838285500E0,-2.140099640E0,1.993853760E-1,1.085527634E1,1.106602030E1
3.848322500E0,-1.987866211E0,-2.529739380E-2,1.045021866E1,1.063763705E1
3.858359500E0,-1.614243164E0,-5.316943359E-1,9.685758362E0,9.833737586E0
3.868396500E0,-1.704804840E0,-8.866062927E-1,9.107061768E0,9.307577789E0
3.878433500E0,-1.918710022E0,-1.114432526E0,9.039103088E0,9.307458979E0
3.888470500E0,-2.073338470E0,-1.280137939E0,9.421857147E0,9.731848625E0
3.898507500E0,-2.238145752E0,-1.262474670E0,1.006551865E1,1.038834945E1
3.908544500E0,-2.251018982E0,-9.827064514E-1,1.068822372E1,1.096681015E1
3.918582500E0,-2.137854309E0,-6.195616150E-1,1.115375565E1,1.137367762E1
3.928619500E0,-2.079176331E0,-3.261717224E-1,1.140149048E1,1.159410830E1
3.938656500E0,-1.902244263E0,-1.387614441E-1,1.126362717E1,1.142396975E1
3.948693500E0,-1.672472076E0,-1.145118713E-1,1.075857742E1,1.088840043E1
3.958730500E0,-1.533710632E0,-3.275189209E-1,1.031864227E1,1.043714115E1
3.968767500E0,-1.503323822E0,-7.053332520E-1,1.015413437E1,1.028901950E1
3.978804500E0,-1.444945221E0,-1.159638519E0,9.998458099E0,1.016866720E1
3.988841500E0,-1.551673279E0,-1.534908142E0,9.929451599E0,1.016649605E1
3.998878500E0,-1.697619781E0,-1.739832001E0,9.992919617E0,1.028432646E1
4.008915500E0,-1.717378693E0,-1.803599396E0,1.012644196E1,1.042819194E1
4.018953500E0,-1.612596588E0,-1.665137329E0,1.032912048E1,1.058602286E1
4.028990500E0,-1.388362885E0,-1.377285919E0,1.048614395E1,1.066694347E1
4.039027500E0,-1.130000153E0,-1.080303497E0,1.059646454E1,1.071116318E1
4.049064500E0,-8.119116211E-1,-7.872129822E-1,1.065050217E1,1.071037353E1
4.059101500E0,-5.553451538E-1,-5.771997070E-1,1.051742889E1,1.054788501E1
4.069138500E0,-4.839436340E-1,-4.686753845E-1,1.032912048E1,1.035106700E1
4.079175500E0,-4.956193542E-1,-4.984634399E-1,1.015129028E1,1.017559820E1
4.089212500E0,-5.535488892E-1,-6.273454285E-1,9.871372375E0,9.906763913E0
4.099249500E0,-6.774911499E-1,-8.449928284E-1,9.544452209E0,9.605705342E0
4.109286500E0,-7.714956665E-1,-1.071022797E0,9.221873016E0,9.315859452E0
4.119324500E0,-7.929011536E-1,-1.249302063E0,8.913214874E0,9.035200456E0
4.129361500E0,-7.487429810E-1,-1.415306854E0,8.627908173E0,8.775221307E0
4.139398500E0,-6.939569092E-1,-1.541195068E0,8.519982605E0,8.686021069E0
4.149435500E0,-6.024971008E-1,-1.479673004E0,8.599317627E0,8.746467779E0
4.159472500E0,-5.719606018E-1,-1.306782532E0,8.879834290E0,8.993679810E0
4.169509500E0,-5.777984619E-1,-1.187031555E0,9.198521576E0,9.292776450E0
4.179546500E0,-4.802014160E-1,-1.120120697E0,9.331744537E0,9.410989315E0
4.189583500E0,-3.610491943E-1,-1.117426300E0,9.292675781E0,9.366580018E0
4.199620500E0,-2.634521484E-1,-1.170266418E0,9.169481964E0,9.247612125E0
4.209657500E0,-1.502874756E-1,-1.316811676E0,9.052126007E0,9.148637306E0
4.219694500E0,-6.137237549E-2,-1.424587555E0,9.040150909E0,9.151914813E0
4.229732500E0,-5.343887329E-2,-1.534159698E0,9.027876434E0,9.157458960E0
4.239769500E0,-1.014889526E-1,-1.678459625E0,8.915759583E0,9.072943054E0
4.249806500E0,-3.158432007E-2,-1.826801147E0,8.789422302E0,8.977312761E0
4.259843500E0,-7.514373779E-2,-1.888622589E0,8.853938141E0,9.053439262E0
4.269880500E0,-2.650987244E-1,-1.775008850E0,8.851992188E0,9.032092750E0
4.279917500E0,-3.538641357E-1,-1.691183167E0,8.784183197E0,8.952496566E0
4.289954500E0,-4.132905579E-1,-1.742376709E0,8.690028992E0,8.872614584E0
4.299991500E0,-3.869453430E-1,-1.805545349E0,8.587641907E0,8.783923624E0
4.310028500E0,-3.878434753E-1,-1.674867096E0,8.694519653E0,8.862859265E0
4.320066500E0,-4.417314148E-1,-1.436712341E0,8.897796936E0,9.023860555E0
4.330103500E0,-4.281097412E-1,-1.323697357E0,8.999136200E0,9.106036733E0
4.340140500E0,-4.210743713E-1,-1.234782257E0,8.985514526E0,9.079728088E0
4.350177500E0,-4.613406372E-1,-1.065933380E0,8.959169312E0,9.034144337E0
4.360214500E0,-4.270619202E-1,-8.958869934E-1,9.112151184E0,9.166040290E0
4.370251500E0,-4.135899353E-1,-7.575746155E-1,9.240434418E0,9.280657528E0
4.380288500E0,-3.981719971E-1,-7.749385071E-1,9.249565430E0,9.290507589E0
4.390325500E0,-3.751199341E-1,-8.143066406E-1,9.103469238E0,9.147511270E0
4.400362500E0,-2.736309814E-1,-7.225474548E-1,8.781788177E0,8.815710540E0
4.410399500E0,-2.113604736E-1,-5.574407959E-1,8.713530121E0,8.733900655E0
4.420436500E0,-2.445913696E-1,-4.082011414E-1,8.912616119E0,8.925311154E0
4.430474500E0,-2.538720703E-1,-3.011737061E-1,9.053772583E0,9.062337150E0
4.440511250E0,-2.462379456E-1,-2.163002014E-1,9.007967834E0,9.013928301E0
4.450548250E0,-1.790277100E-1,-8.412506104E-2,8.824599152E0,8.826815855E0
4.460585251E0,-1.664538574E-1,1.163081360E-1,8.845405884E0,8.847736418E0
4.470622250E0,-1.908531189E-1,2.778222656E-1,8.964857483E0,8.971191661E0
4.480659250E0,-2.508782959E-1,2.510279846E-1,8.928034058E0,8.935085176E0
4.490696250E0,-3.487747192E-1,2.195933533E-1,8.732540588E0,8.742261159E0
4.500733250E0,-4.058061218E-1,3.094065857E-1,8.571325836E0,8.586503225E0
4.510770250E0,-3.755690002E-1,5.266049194E-1,8.813222809E0,8.836925998E0
4.520807250E0,-4.522096252E-1,5.730084229E-1,9.396410065E0,9.424720383E0
4.530845250E0,-5.602848816E-1,4.707710266E-1,9.836794281E0,9.863978215E0
4.540882250E0,-7.571255493E-1,3.769161987E-1,1.003363495E1,1.006921721E1
4.550919250E0,-8.192463684E-1,3.297642517E-1,1.005893234E1,1.009762492E1
4.560956250E0,-7.985893250E-1,2.953358459E-1,9.871821442E0,9.908472473E0
4.570993250E0,-7.234455872E-1,2.504292297E-1,9.466614075E0,9.497519169E0
4.581030251E0,-6.698570251E-1,9.460327148E-2,9.191935272E0,9.216796204E0
4.591067250E0,-7.002438354E-1,-7.035369873E-3,9.226812744E0,9.253348818E0
4.601104250E0,-7.460485840E-1,-5.044509888E-2,9.403445435E0,9.433128815E0
4.611141250E0,-8.334667969E-1,-3.517684937E-2,9.711205444E0,9.746969554E0
4.621178250E0,-8.541238403E-1,1.022373962E-1,1.006102798E1,1.009773559E1
4.631215250E0,-8.526269531E-1,2.234852600E-1,1.043165726E1,1.046882952E1
4.641253250E0,-7.866142273E-1,3.188369751E-1,1.079944244E1,1.083274555E1
4.651290250E0,-6.589297485E-1,4.529580688E-1,1.106978027E1,1.109862130E1
4.661327250E0,-5.188211060E-1,5.623805237E-1,1.128652954E1,1.131243547E1
4.671364250E0,-3.083587646E-1,5.966592407E-1,1.138577316E1,1.140556522E1
4.681401250E0,-7.469467163E-2,5.777984619E-1,1.139849670E1,1.141337625E1
4.691438250E0,-7.349716187E-2,3.188369751E-1,1.151630173E1,1.152094893E1
4.701475251E0,-2.549198914E-1,-4.984634399E-2,1.189441544E1,1.189725125E1
4.711512250E0,-4.944218445E-1,-3.201841736E-1,1.205488174E1,1.206926447E1
4.721549250E0,-8.123606873E-1,-5.743556213E-1,1.211071564E1,1.215151215E1
4.731586250E0,-1.119671631E0,-8.897497559E-1,1.243179794E1,1.251378917E1
4.741624250E0,-1.462009735E0,-1.278491364E0,1.281664764E1,1.296296530E1
4.751661250E0,-1.777553558E0,-1.469494171E0,1.285661453E1,1.306183934E1
4.761698250E0,-1.916165314E0,-1.270108795E0,1.247056732E1,1.268069064E1
4.771735250E0,-1.743723907E0,-7.458988953E-1,1.196731384E1,1.211666368E1
4.781772250E0,-1.251098328E0,-1.715432739E-1,1.151181107E1,1.158086647E1
4.791809250E0,-6.491999817E-1,2.808160400E-1,1.120929016E1,1.123158511E1
4.801846250E0,-1.270857239E-1,6.619235229E-1,1.092473190E1,1.094550413E1
4.811883250E0,2.384541321E-1,9.617500305E-1,1.042013123E1,1.046713706E1
4.821920250E0,4.578977966E-1,1.092428284E0,9.879156189E0,9.949914419E0
4.831957250E0,4.751119995E-1,9.460327148E-1,9.377399597E0,9.436966277E0
4.841995250E0,2.465373230E-1,6.331832886E-1,9.012458496E0,9.038036837E0
4.852032250E0,-7.978408813E-2,1.745370483E-1,8.715176697E0,8.717289346E0
4.862069250E0,-3.592529297E-1,-2.662962341E-1,8.436905365E0,8.448748339E0
4.872106250E0,-6.704557800E-1,-5.626799011E-1,8.213120728E0,8.259629030E0
4.882143250E0,-9.219328308E-1,-7.200027466E-1,8.282875671E0,8.365069844E0
4.892180250E0,-1.132694550E0,-8.229885864E-1,8.685538330E0,8.797663510E0
4.902217250E0,-1.299597473E0,-8.999285889E-1,9.218280487E0,9.352834875E0
4.912254250E0,-1.403930511E0,-8.080197144E-1,9.658664703E0,9.793555054E0
4.922291250E0,-1.492546234E0,-6.042933655E-1,9.871222687E0,1.000169496E1
4.932328250E0,-1.629810791E0,-4.397854614E-1,1.008378067E1,1.022410520E1
4.942365250E0,-1.757195892E0,-3.394940186E-1,1.033615585E1,1.048995288E1
4.952403250E0,-1.921105042E0,-3.197351074E-1,1.029723679E1,1.047978819E1
4.962440250E0,-2.010169830E0,-3.770658875E-1,1.003977219E1,1.024597418E1
4.972477250E0,-2.029779053E0,-4.848417664E-1,9.692344666E0,9.914465172E0
4.982514250E0,-1.960772552E0,-6.149212646E-1,9.355694733E0,9.578715002E0
4.992551250E0,-1.831142120E0,-6.918612671E-1,9.123826904E0,9.331450630E0
5.002588250E0,-1.681154022E0,-7.255412292E-1,9.042845306E0,9.226361155E0
5.012625250E0,-1.500928802E0,-6.840774536E-1,9.094637604E0,9.243007215E0
5.022662250E0,-1.268312531E0,-5.173242188E-1,9.236243134E0,9.337260211E0
5.032699250E0,-1.084794159E0,-3.823049927E-1,9.382638702E0,9.452874933E0
5.042736250E0,-8.888516235E-1,-2.200424194E-1,9.550140381E0,9.593938564E0
5.052774251E0,-6.436614990E-1,1.017883301E-2,9.658215637E0,9.679645295E0
5.062811250E0,-4.825964355E-1,1.628613281E-1,9.745184784E0,9.758486030E0
5.072848250E0,-4.260140991E-1,2.565664673E-1,9.737251282E0,9.749942404E0
5.082885250E0,-4.671784973E-1,2.552192688E-1,9.611512756E0,9.626243820E0
5.092922250E0,-5.487588501E-1,2.183958435E-1,9.405690765E0,9.424216243E0
5.102959250E0,-6.445596313E-1,2.125579834E-1,9.129814453E0,9.155006825E0
5.112996250E0,-7.858657837E-1,2.248324585E-1,8.981472931E0,9.018591391E0
5.123033250E0,-1.009201355E0,1.429527283E-1,8.900191956E0,8.958367022E0
5.133070250E0,-1.253643036E0,9.280700684E-2,8.847351837E0,8.936211084E0
5.143107250E0,-1.431323547E0,1.749861145E-1,8.843609619E0,8.960398336E0
5.153144250E0,-1.539398804E0,2.525248718E-1,8.822353821E0,8.959210034E0
5.163182250E0,-1.552571411E0,2.372566223E-1,8.755742340E0,8.895492826E0
5.173219251E0,-1.490749969E0,2.296224976E-1,8.753047943E0,8.882055520E0
5.183256250E0,-1.323547668E0,2.836601257E-1,8.836274872E0,8.939350933E0
5.193293250E0,-1.176403656E0,4.092489624E-1,8.869655457E0,8.956684554E0
5.203330250E0,-9.949809265E-1,4.876858521E-1,8.888366547E0,8.957169441E0
5.213367250E0,-6.857240295E-1,5.649252319E-1,8.960815887E0,9.004753152E0
5.223404250E0,-4.977149963E-1,7.327262878E-1,9.128317566E0,9.171193467E0
5.233441250E0,-3.743714905E-1,8.571176147E-1,9.424102478E0,9.470401899E0
5.243478250E0,-2.348616028E-1,9.973759460E-1,9.664053497E0,9.718222510E0
5.253515250E0,-2.254312134E-1,1.142124939E0,9.885293427E0,9.953607122E0
5.263553250E0,-2.667453003E-1,1.217717743E0,1.004995102E1,1.012696919E1
5.273590250E0,-3.525169373E-1,1.275946655E0,1.004875351E1,1.013556881E1
5.283627250E0,-4.540058899E-1,1.335073700E0,9.987680511E0,1.008673907E1
5.293664251E0,-5.840853882E-1,1.310375061E0,9.885143738E0,9.988708888E0
5.303701250E0,-6.460565186E-1,1.285077667E0,9.768236847E0,9.873563933E0
5.313738250E0,-6.840774536E-1,1.221010895E0,9.567354584E0,9.669183176E0
5.323775250E0,-7.406597900E-1,1.152603149E0,9.469009094E0,9.567612250E0
5.333812250E0,-8.087681580E-1,1.093176727E0,9.482630768E0,9.579636088E0
5.343849250E0,-8.780740356E-1,1.015637970E0,9.507928162E0,9.602251425E0
5.353886250E0,-9.630972290E-1,9.541159058E-1,9.478140106E0,9.574603559E0
5.363923250E0,-1.072369995E0,9.868977356E-1,9.485325165E0,9.596631598E0
5.373961250E0,-1.176403656E0,1.154698792E0,9.581575012E0,9.722336889E0
5.383998250E0,-1.179397430E0,1.293909302E0,9.697583771E0,9.854354904E0
5.394035250E0,-1.200353851E0,1.372645569E0,9.727222137E0,9.896658817E0
5.404072250E0,-1.176703033E0,1.390608215E0,9.698631592E0,9.868225575E0
5.414109251E0,-1.103205872E0,1.443448334E0,9.724078674E0,9.892336041E0
5.424146250E0,-9.267228699E-1,1.545536041E0,9.805359650E0,9.969582478E0
5.434183250E0,-6.953041077E-1,1.623374176E0,1.007000931E1,1.022369204E1
5.444220458E0,-4.171824646E-1,1.644330597E0,1.044018951E1,1.057711782E1
5.454257458E0,-1.859133911E-1,1.615440674E0,1.090916428E1,1.102969073E1
5.464294459E0,1.451980591E-2,1.448687439E0,1.144011017E1,1.153147982E1
5.474331458E0,1.761836243E-1,1.193917236E0,1.190983337E1,1.197082328E1
5.484369459E0,1.474433899E-1,8.716374207E-1,1.228570175E1,1.231746560E1
5.494406458E0,-2.296224976E-1,4.418811035E-1,1.269614822E1,1.270591064E1
5.504443458E0,-5.863307190E-1,8.951385498E-2,1.296379166E1,1.297735299E1
5.514480459E0,-6.503974915E-1,-2.504292297E-1,1.289732986E1,1.291614685E1
5.524517459E0,-7.379653931E-1,-6.960525513E-1,1.260917908E1,1.264992012E1
5.534554458E0,-8.948391724E-1,-1.157842255E0,1.236877899E1,1.245504033E1
5.544591459E0,-9.792636108E-1,-1.381926270E0,1.199440750E1,1.211340120E1
5.554628459E0,-9.145980835E-1,-1.241817627E0,1.144085861E1,1.154434262E1
5.564665458E0,-7.794291687E-1,-8.949888611E-1,1.103160965E1,1.109526594E1
5.574702458E0,-4.903802490E-1,-5.722599792E-1,1.083656525E1,1.086273909E1
5.584739459E0,-2.215393066E-2,-3.496728516E-1,1.064915497E1,1.065491734E1
5.594777458E0,5.179229736E-1,-2.185455322E-1,1.039303757E1,1.040822926E1
5.604814459E0,1.055604858E0,-2.757266235E-1,9.958491211E0,1.001807736E1
5.614851458E0,1.425785065E0,-3.703298950E-1,9.449250183E0,9.563385191E0
5.624888458E0,1.425186310E0,-3.317102051E-1,9.039252777E0,9.156925163E0
5.634925459E0,1.102906494E0,-2.835104370E-1,8.622968445E0,8.697836840E0
5.644962458E0,6.436614990E-1,-3.290158081E-1,8.274493103E0,8.306009128E0
5.654999458E0,1.101708984E-1,-3.784130859E-1,8.027057648E0,8.036727479E0
5.665036459E0,-3.579057312E-1,-3.829037476E-1,7.884104919E0,7.901507589E0
5.675073459E0,-6.821315002E-1,-4.361929321E-1,7.931855621E0,7.973073514E0
5.685110458E0,-8.931925964E-1,-5.851332092E-1,8.082891541E0,8.153116554E0
5.695147458E0,-8.693920898E-1,-7.587721252E-1,8.377179565E0,8.456282588E0
5.705185458E0,-5.903723145E-1,-8.491841125E-1,8.680448914E0,8.741844569E0
5.715222458E0,-3.203338623E-1,-9.128018188E-1,8.839867401E0,8.892641712E0
5.725259459E0,-1.752854919E-1,-8.304730225E-1,9.019344177E0,9.059193112E0
5.735296458E0,-3.068618774E-2,-6.239025879E-1,9.208401031E0,9.229563675E0
5.745333458E0,-2.005828857E-2,-4.049079895E-1,9.586065674E0,9.594634330E0
5.755370459E0,-9.879455566E-2,-3.417393494E-1,9.803563385E0,9.810015351E0
5.765407458E0,-2.203417969E-1,-4.308041382E-1,9.788893890E0,9.800846204E0
5.775444458E0,-4.273612976E-1,-5.059478760E-1,9.595346375E0,9.618175138E0
5.785481459E0,-6.071374512E-1,-6.194119263E-1,9.181906128E0,9.222780880E0
5.795518459E0,-6.935078430E-1,-7.141648865E-1,8.827742615E0,8.883694293E0
5.805555458E0,-6.881190491E-1,-6.860234070E-1,8.571625214E0,8.626522749E0
5.815593459E0,-6.902146912E-1,-5.424719238E-1,8.439599762E0,8.485135017E0
5.825630458E0,-6.882687378E-1,-2.653981018E-1,8.435109100E0,8.467302731E0
5.835667458E0,-7.087760925E-1,4.745132446E-2,8.618028717E0,8.647255874E0
5.845704459E0,-7.405101013E-1,2.832110596E-1,8.838819580E0,8.874305341E0
5.855741458E0,-7.827223206E-1,4.308041382E-1,9.203461304E0,9.246726253E0
5.865778458E0,-7.533833313E-1,5.098397827E-1,9.548793182E0,9.592026600E0
5.875815459E0,-7.366181946E-1,5.086422729E-1,9.721234589E0,9.762362688E0
5.885852458E0,-7.056326294E-1,3.492237854E-1,9.662855988E0,9.694878055E0
5.895889458E0,-7.650590515E-1,1.094224548E-1,9.333391113E0,9.365333859E0
5.905926459E0,-9.282197571E-1,-6.945556641E-2,8.887618103E0,8.936228038E0
5.915963459E0,-1.105451202E0,-2.906954956E-1,8.453221436E0,8.530151163E0
5.926001458E0,-1.164727936E0,-4.555027771E-1,8.181237030E0,8.276274119E0
5.936038459E0,-1.211131439E0,-4.956193542E-1,8.057145081E0,8.162724101E0
5.946075458E0,-1.153650970E0,-5.396278381E-1,8.111631775E0,8.211009610E0
5.956112458E0,-1.002315674E0,-5.096900940E-1,8.441096649E0,8.515663999E0
5.966149459E0,-7.926017761E-1,-3.742218018E-1,8.765023041E0,8.808739322E0
5.976186458E0,-5.529501343E-1,-1.347198486E-1,9.007518768E0,9.025480466E0
5.986223458E0,-2.522254944E-1,9.924362183E-2,9.214238892E0,9.218224631E0
5.996260459E0,4.595443726E-2,2.956352234E-1,9.261989594E0,9.266820556E0
6.006297458E0,2.794688416E-1,4.105961609E-1,9.261690216E0,9.274998528E0
6.016334458E0,3.851490784E-1,5.161267090E-1,9.298064575E0,9.320339663E0
6.026372459E0,3.956272888E-1,5.295986938E-1,9.293723602E0,9.317204201E0
6.036409458E0,3.106040955E-1,5.149291992E-1,9.236392822E0,9.255948323E0
6.046446458E0,1.474433899E-1,5.785469055E-1,9.228010254E0,9.247303895E0
6.056483459E0,3.442840576E-2,6.486012268E-1,9.235345001E0,9.258156737E0
6.066520458E0,-6.466552734E-2,6.105802917E-1,9.266031189E0,9.286351486E0
6.076557458E0,-1.204994202E-1,4.882846069E-1,9.305549011E0,9.319130022E0
6.086594459E0,-1.224453735E-1,4.004173279E-1,9.302106171E0,9.311525445E0
6.096631458E0,-7.978408813E-2,3.402424622E-1,9.327852631E0,9.334396881E0
6.106668458E0,-2.903961182E-2,3.224295044E-1,9.404044189E0,9.409614827E0
6.116705459E0,7.634124756E-3,3.576063538E-1,9.477990417E0,9.484737368E0
6.126742458E0,5.628295898E-2,4.153862000E-1,9.568552094E0,9.577729513E0
6.136779458E0,1.169068909E-1,5.071453857E-1,9.824220428E0,9.837996274E0
6.146817459E0,1.716929626E-1,5.786965942E-1,1.002540207E1,1.004355788E1
6.156854458E0,1.827699280E-1,7.472460938E-1,1.041863434E1,1.044699589E1
6.166891458E0,1.670526123E-1,8.155041504E-1,1.079749649E1,1.082953757E1
6.176928459E0,1.559756470E-1,7.044351196E-1,1.100571350E1,1.102933756E1
6.186965458E0,1.618135071E-1,5.462141418E-1,1.105780518E1,1.107246986E1
6.197002458E0,1.779798889E-1,3.547622681E-1,1.090153015E1,1.090875303E1
6.207039459E0,2.427951050E-1,1.877096558E-1,1.062400726E1,1.062843896E1
6.217076458E0,3.558100891E-1,1.056802368E-1,1.034962784E1,1.035628145E1
6.227113458E0,3.617976379E-1,2.679428101E-2,1.015099091E1,1.015747172E1
6.237150459E0,3.107537842E-1,-2.604583740E-2,1.017209702E1,1.017687594E1
6.247188458E0,1.773811340E-1,-1.082249451E-1,1.040845551E1,1.041052942E1
6.257225459E0,-1.661544800E-1,-3.689826965E-1,1.105795486E1,1.106535681E1
6.267262459E0,-5.548960876E-1,-5.885760498E-1,1.181807419E1,1.184572535E1
6.277299458E0,-6.655160522E-1,-5.309458923E-1,1.202868622E1,1.205877719E1
6.287336458E0,-6.683601379E-1,-5.285508728E-1,1.234033813E1,1.236972177E1
6.297373459E0,-5.065466309E-1,-5.572911072E-1,1.266905457E1,1.269141861E1
6.307410458E0,-2.647993469E-1,-4.224215698E-1,1.289987457E1,1.290950513E1
6.317447458E0,1.380130005E-1,-1.481918335E-2,1.310614563E1,1.310688065E1
6.327484459E0,5.477110291E-1,4.185296631E-1,1.314790878E1,1.316596597E1
6.337521458E0,8.205935669E-1,7.981402588E-1,1.309686493E1,1.314679705E1
6.347558458E0,9.889933777E-1,1.192420349E0,1.293535080E1,1.302778855E1
6.357596459E0,9.981243896E-1,1.575324097E0,1.255394394E1,1.269170622E1
6.367633458E0,9.250762939E-1,1.870659943E0,1.197195419E1,1.215248213E1
6.377670459E0,7.680528259E-1,1.994901581E0,1.124880798E1,1.145011871E1
6.387707459E0,4.965174866E-1,1.977088623E0,1.056937088E1,1.076415393E1
6.397744458E0,1.567240906E-1,1.864672394E0,9.998009033E0,1.017161493E1
6.407781458E0,-2.644999695E-1,1.721869354E0,9.421258392E0,9.580965713E0
6.417818459E0,-7.420069885E-1,1.466500397E0,8.966054993E0,9.115445130E0
6.427855458E0,-1.212029572E0,1.044827271E0,8.621920624E0,8.769161588E0
6.437892209E0,-1.540296936E0,5.879772949E-1,8.267757111E0,8.430542070E0
6.447929208E0,-1.839075623E0,1.460961914E-1,7.873327332E0,8.086583117E0
6.457966208E0,-2.079625397E0,-2.345622253E-1,7.631729736E0,7.913479639E0
6.468004208E0,-2.195634155E0,-5.174739075E-1,7.598349152E0,7.926127580E0
6.478041208E0,-2.187401276E0,-6.914122009E-1,7.902366943E0,8.228619476E0
6.488078209E0,-2.025587769E0,-7.429051208E-1,8.330776062E0,8.605622791E0
6.498115208E0,-1.691632233E0,-7.153623962E-1,8.856931915E0,9.045363780E0
6.508152208E0,-1.328337708E0,-6.203100586E-1,9.436077576E0,9.549284039E0
6.518189209E0,-1.014739838E0,-4.791535950E-1,1.004635849E1,1.010883792E1
6.528226208E0,-7.628137207E-1,-3.683839417E-1,1.049826874E1,1.053238995E1
6.538263208E0,-5.694158936E-1,-2.471360779E-1,1.063553329E1,1.065363221E1
6.548300209E0,-4.987628174E-1,-8.382568359E-2,1.052715866E1,1.053930076E1
6.558337209E0,-5.605842590E-1,6.616241455E-2,1.026595184E1,1.028145901E1
6.568374208E0,-7.587721252E-1,1.496887207E-1,9.985435181E0,1.001534111E1
6.578411208E0,-1.018332367E0,2.086660767E-1,9.640851746E0,9.696729589E0
6.588449208E0,-1.254541168E0,2.760260010E-1,9.326954498E0,9.414995704E0
6.598486208E0,-1.439706116E0,3.200344849E-1,9.108858032E0,9.227484512E0
6.608523209E0,-1.576222229E0,4.023632813E-1,8.920100555E0,9.067224859E0
6.618560208E0,-1.665287018E0,4.778063965E-1,8.815767517E0,8.984388500E0
6.628597208E0,-1.682501221E0,4.694238281E-1,8.798703003E0,8.970414908E0
6.638634209E0,-1.660347290E0,4.131408691E-1,8.946745148E0,9.108879582E0
6.648671208E0,-1.581311646E0,3.055146790E-1,9.027577057E0,9.170116316E0
6.658708208E0,-1.480271759E0,1.893562317E-1,8.978329468E0,9.101508682E0
6.668745209E0,-1.351090393E0,7.499404907E-2,8.906029816E0,9.008242694E0
6.678782209E0,-1.234931946E0,-4.490661621E-3,8.897048492E0,8.982346517E0
6.688819208E0,-1.039588165E0,-7.289840698E-2,8.966354370E0,9.026714154E0
6.698857209E0,-8.309220886E-1,-1.215472412E-1,9.160051575E0,9.198464551E0
6.708894208E0,-6.541397095E-1,-9.654922485E-2,9.432784424E0,9.455931604E0
6.718931208E0,-4.065545654E-1,-3.951782227E-2,9.601333923E0,9.610018802E0
6.728968209E0,-2.770738220E-1,-1.526824951E-2,9.642198944E0,9.646191139E0
6.739005208E0,-1.570234680E-1,-6.586303711E-3,9.638756104E0,9.640037291E0
6.749042208E0,-9.145980835E-2,1.068777466E-1,9.573491821E0,9.574525231E0
6.759079209E0,-1.603166199E-1,2.918930054E-1,9.446256409E0,9.452124792E0
6.769116208E0,-2.582130432E-1,3.480262756E-1,9.319769440E0,9.329839156E0
6.779153208E0,-3.718267822E-1,3.324586487E-1,9.164392548E0,9.177955909E0
6.789190209E0,-5.369334412E-1,3.710783386E-1,9.036708069E0,9.060247755E0
6.799227209E0,-7.352709961E-1,3.595523071E-1,8.939410400E0,8.976801190E0
6.809265208E0,-8.960366821E-1,2.625540161E-1,8.970695343E0,9.019156905E0
6.819302209E0,-1.027164001E0,1.663041687E-1,9.128317566E0,9.187431880E0
6.829339208E0,-1.052461395E0,2.198927307E-1,9.323960724E0,9.385748312E0
6.839376208E0,-1.060394897E0,4.360432434E-1,9.590855713E0,9.659145115E0
6.849413209E0,-1.167422333E0,6.798861694E-1,9.986483002E0,1.007744823E1
6.859450208E0,-1.139280853E0,9.656419373E-1,1.021820114E1,1.032676425E1
6.869487208E0,-7.788304138E-1,1.108744354E0,1.012838791E1,1.021861696E1
6.879524209E0,-2.700384521E-1,1.050964508E0,9.938732300E0,9.997792101E0
6.889561208E0,1.261875916E-1,9.047186279E-1,9.861193542E0,9.903412401E0
6.899598208E0,3.305126953E-1,7.746391296E-1,9.984836426E0,1.002029255E1
6.909635209E0,2.832110596E-1,6.583309937E-1,1.020817200E1,1.023329779E1
6.919672209E0,1.541793823E-1,5.029541016E-1,1.038211029E1,1.039542920E1
6.929710208E0,2.395019531E-3,4.221221924E-1,1.039273819E1,1.040130761E1
6.939747209E0,-1.640588379E-1,4.004173279E-1,1.022867935E1,1.023782841E1
6.949784208E0,-3.924838257E-1,3.670367432E-1,1.003228775E1,1.004666895E1
6.959821208E0,-6.015989685E-1,2.405497742E-1,9.852361908E0,9.873642726E0
6.969858209E0,-7.291337585E-1,1.451980591E-2,9.657616882E0,9.685112839E0
6.979895208E0,-7.364685059E-1,-2.421963501E-1,9.387428741E0,9.419387629E0
6.989932208E0,-7.614665222E-1,-4.179309082E-1,9.248966675E0,9.289665336E0
6.999969209E0,-7.854167175E-1,-4.661306763E-1,9.414821777E0,9.459018254E0
7.010006208E0,-6.912625122E-1,-3.342549133E-1,9.759704590E0,9.789862302E0
7.020043208E0,-5.203179932E-1,-1.426533508E-1,1.005399261E1,1.006845809E1
7.030080209E0,-2.996768188E-1,5.688171387E-3,1.037851776E1,1.038284496E1
7.040118208E0,-2.616558838E-1,-1.326242065E-1,1.102307739E1,1.102698001E1
7.050155208E0,-3.592529297E-1,-3.263214111E-1,1.176059372E1,1.177060376E1
7.060192209E0,-2.047741699E-1,-1.755848694E-1,1.190833649E1,1.191139120E1
7.070229208E0,-2.484832764E-2,1.573228455E-1,1.179547119E1,1.179654647E1
7.080266208E0,8.726852417E-2,2.866539001E-1,1.203931412E1,1.204304242E1
7.090303209E0,1.240919495E-1,2.267784119E-1,1.243748611E1,1.244017235E1
7.100340208E0,-1.637594604E-1,2.639012146E-1,1.263866776E1,1.264248329E1
7.110377208E0,-3.517684937E-1,4.824467468E-1,1.267519180E1,1.268924675E1
7.120414209E0,-1.463955688E-1,6.502478027E-1,1.263268021E1,1.265025150E1
7.130451208E0,9.909393311E-2,7.617658997E-1,1.252490433E1,1.254843956E1
7.140488208E0,3.583547974E-1,1.030606842E0,1.225636276E1,1.230483632E1
7.150525209E0,5.499563599E-1,1.265767822E0,1.178708862E1,1.186760626E1
7.160563208E0,6.197113037E-1,1.286424866E0,1.123204285E1,1.132244309E1
7.170600208E0,6.447093201E-1,1.218017120E0,1.055275543E1,1.064236172E1
7.180637209E0,5.628295898E-1,1.103954315E0,9.729467468E0,9.808059415E0
7.190674208E0,3.580554199E-1,9.451345825E-1,9.015751648E0,9.072224691E0
7.200711208E0,5.493576050E-2,6.972500610E-1,8.403225403E0,8.432281587E0
7.210748209E0,-2.411485291E-1,3.676354980E-1,7.897427216E0,7.909656446E0
7.220785208E0,-5.185217285E-1,1.871109009E-2,7.560178528E0,7.577962408E0
7.230822208E0,-6.988966370E-1,-2.814147949E-1,7.368277588E0,7.406697335E0
7.240859209E0,-7.999365234E-1,-5.022056580E-1,7.323221283E0,7.383879666E0
7.250896208E0,-8.496331787E-1,-5.945635986E-1,7.403304749E0,7.475580487E0
7.260933208E0,-7.695497131E-1,-5.550457764E-1,7.647596741E0,7.706232444E0
7.270971209E0,-5.489085388E-1,-3.218307495E-1,8.043822784E0,8.068950403E0
7.281008208E0,-1.896556091E-1,-7.065307617E-2,8.500523071E0,8.502932059E0
7.291045208E0,-3.757186890E-2,4.580474854E-2,8.931925964E0,8.932122433E0
7.301082209E0,1.246907043E-1,1.219963074E-1,9.259893951E0,9.261536960E0
7.311119208E0,2.658471680E-1,1.610650635E-1,9.446855164E0,9.451967475E0
7.321156208E0,2.396516418E-1,1.995350647E-1,9.618847504E0,9.623901207E0
7.331193209E0,1.466949463E-1,1.706451416E-1,9.754615173E0,9.757210480E0
7.341230208E0,9.295669556E-2,3.023712158E-2,9.751621399E0,9.752111317E0
7.351267208E0,8.532257080E-3,-1.356179810E-1,9.592502289E0,9.593464713E0
7.361304209E0,-7.768844604E-2,-2.344125366E-1,9.295370178E0,9.298649982E0
7.371341208E0,-2.474354553E-1,-2.959346008E-1,8.983867950E0,8.992145736E0
7.381378208E0,-4.944218445E-1,-3.201841736E-1,8.709189148E0,8.729086234E0
7.391416209E0,-7.131170654E-1,-2.649490356E-1,8.425229645E0,8.459505216E0
7.401453208E0,-8.195457458E-1,-1.899549866E-1,8.204738159E0,8.247755233E0
7.411490208E0,-8.463400269E-1,-2.133064270E-1,8.105344849E0,8.152202536E0
7.421527209E0,-8.514294434E-1,-2.682421875E-1,8.073161774E0,8.122365849E0
7.431564208E0,-7.198530579E-1,-3.129991150E-1,8.084987183E0,8.123002808E0
7.441601958E0,-3.824546814E-1,-3.103047180E-1,8.192613373E0,8.207403638E0
7.451638958E0,-8.517288208E-2,-3.468287659E-1,8.411158905E0,8.418737360E0
7.461675959E0,1.188528442E-1,-3.209326172E-1,8.635242920E0,8.642021987E0
7.471712958E0,3.155438232E-1,-2.170486450E-1,8.781937866E0,8.790285018E0
7.481749958E0,5.363346863E-1,-1.715432739E-1,8.832382965E0,8.850314731E0
7.491786959E0,7.961943054E-1,-1.984872437E-1,8.815168762E0,8.853277521E0
7.501824958E0,9.599537659E-1,-2.070195007E-1,8.817563782E0,8.872079765E0
7.511861959E0,9.925859070E-1,-2.079176331E-1,8.879235535E0,8.936961464E0
7.521898959E0,1.142424316E0,-1.442999268E-1,8.921148376E0,8.995156705E0
7.531935958E0,1.192869415E0,-5.149291992E-2,9.115594025E0,9.193456553E0
7.541972958E0,1.066831512E0,6.047424316E-2,9.455237732E0,9.515424698E0
7.552009959E0,9.677375793E-1,1.761836243E-1,9.651030579E0,9.701028189E0
7.562046958E0,8.418493652E-1,2.923420715E-1,9.655670929E0,9.696708479E0
7.572083958E0,7.851173401E-1,3.567082214E-1,9.639504547E0,9.678000718E0
7.582120959E0,6.746470642E-1,3.447331238E-1,9.557475128E0,9.587456410E0
7.592157958E0,6.228547668E-1,3.520678711E-1,9.262139282E0,9.289732178E0
7.602194958E0,5.180726624E-1,3.264710999E-1,9.036558380E0,9.057282706E0
7.612231959E0,3.989204407E-1,2.941383362E-1,8.971443787E0,8.985124289E0
7.622269958E0,2.827619934E-1,2.927911377E-1,9.099876709E0,9.108975635E0
7.632306959E0,2.236349487E-1,2.067201233E-1,9.213490448E0,9.218522226E0
7.642343959E0,1.318757629E-1,8.592132568E-2,9.189240875E0,9.190588749E0
7.652380958E0,1.285826111E-1,-7.634124756E-3,9.055868225E0,9.056784257E0
7.662417958E0,1.555265808E-1,-4.296066284E-2,9.008566589E0,9.010011439E0
7.672454959E0,2.279759216E-1,2.050735474E-2,9.247469788E0,9.250302214E0
7.682491958E0,3.722758484E-1,2.320175171E-2,9.702822876E0,9.709989670E0
7.692528958E0,4.393363953E-1,-2.948867798E-2,1.005384293E1,1.006348069E1
7.702565959E0,4.493655396E-1,2.290237427E-2,1.030936157E1,1.031917584E1
7.712602958E0,4.433779907E-1,1.209484863E-1,1.049362839E1,1.050368742E1
7.722639958E0,4.538562012E-1,1.809736633E-1,1.061966629E1,1.063090067E1
7.732676959E0,4.358935547E-1,1.633103943E-1,1.069974976E1,1.070987014E1
7.742714958E0,4.399351501E-1,1.996847534E-1,1.059526703E1,1.060627646E1
7.752751959E0,4.966671753E-1,3.240760803E-1,1.069046906E1,1.070690582E1
7.762788959E0,5.872288513E-1,3.806584167E-1,1.072325089E1,1.074606198E1
7.772825958E0,7.441026306E-1,4.387376404E-1,1.081276474E1,1.084721442E1
7.782862958E0,7.167095947E-1,4.278103638E-1,1.086485641E1,1.089687108E1
7.792899959E0,5.203179932E-1,2.737806702E-1,1.090856552E1,1.092439877E1
7.802936958E0,1.082249451E-1,-6.256988525E-2,1.128578110E1,1.128647344E1
7.812973958E0,-6.890171814E-1,-5.697152710E-1,1.202120178E1,1.205440220E1
7.823010959E0,-1.353335724E0,-8.128097534E-1,1.259944931E1,1.269796441E1
7.833047958E0,-1.746118927E0,-8.666976929E-1,1.253298752E1,1.268368528E1
7.843084958E0,-2.073188782E0,-9.647438049E-1,1.253448441E1,1.274135557E1
7.853121959E0,-2.187401276E0,-1.100960541E0,1.256591904E1,1.280231072E1
7.863159958E0,-2.028731232E0,-1.121767273E0,1.245020966E1,1.266419491E1
7.873196959E0,-1.803150330E0,-1.042132874E0,1.220307358E1,1.237951521E1
7.883233959E0,-1.435963898E0,-8.828640747E-1,1.200593353E1,1.212369091E1
7.893270958E0,-9.497749329E-1,-6.251000977E-1,1.174218201E1,1.179710392E1
7.903307959E0,-5.270539856E-1,-2.221380615E-1,1.144070892E1,1.145499681E1
7.913344959E0,-1.514849854E-1,1.832189941E-1,1.119402191E1,1.119654605E1
7.923381958E0,3.323089600E-2,4.186793518E-1,1.105316483E1,1.106114141E1
7.933418958E0,-1.392105103E-2,4.769082642E-1,1.083656525E1,1.084706327E1
7.943455959E0,-1.627116394E-1,4.102967834E-1,1.045815216E1,1.046746221E1
7.953492958E0,-3.357518005E-1,2.490820312E-1,9.883197784E0,9.892035664E0
7.963529958E0,-4.996609497E-1,5.748046875E-2,9.382938080E0,9.396408467E0
7.973566959E0,-6.837780762E-1,-1.935475159E-1,9.020691376E0,9.048640008E0
7.983604958E0,-8.738827515E-1,-3.231779480E-1,8.682245178E0,8.732095761E0
7.993641959E0,-1.015488281E0,-4.152365112E-1,8.285420380E0,8.357740644E0
8.003678959E0,-1.066083069E0,-4.450245667E-1,8.082592163E0,8.164733679E0
8.013715958E0,-9.425898743E-1,-4.733157349E-1,8.038433990E0,8.107337693E0
8.023752959E0,-6.509962463E-1,-5.975573730E-1,8.143814850E0,8.191617132E0
8.033789959E0,-3.954776001E-1,-7.798782349E-1,8.377628632E0,8.423139206E0
8.043826958E0,-2.186952209E-1,-8.524772644E-1,8.715027008E0,8.759351622E0
8.053863958E0,2.499801636E-2,-8.255332947E-1,8.988358612E0,9.026224053E0
8.063900959E0,1.992356873E-1,-7.372169495E-1,9.247469788E0,9.278948279E0
8.073937958E0,2.234852600E-1,-5.483097839E-1,9.435628510E0,9.454188207E0
8.083974958E0,1.383123779E-1,-4.415817261E-1,9.462871857E0,9.474179042E0
8.094011959E0,8.083190918E-2,-3.809577942E-1,9.499695282E0,9.507674431E0
8.104049958E0,7.140151978E-2,-3.132984924E-1,9.444609833E0,9.450074551E0
8.114086959E0,1.556762695E-2,-3.064128113E-1,9.358987885E0,9.364015452E0
8.124123958E0,-5.538482666E-2,-3.766168213E-1,9.411229248E0,9.418924762E0
8.134160958E0,-1.761836243E-1,-5.424719238E-1,9.496851196E0,9.513963375E0
8.144197959E0,-4.839436340E-1,-6.457571411E-1,9.626631317E0,9.660395139E0
8.154234959E0,-7.560777283E-1,-6.896159363E-1,9.712552643E0,9.766314684E0
8.164271958E0,-9.075627136E-1,-7.761360168E-1,9.681866455E0,9.755234249E0
8.174308958E0,-1.028062134E0,-8.681945801E-1,9.691296844E0,9.784268399E0
8.184345959E0,-1.298399963E0,-8.961863708E-1,9.877659302E0,1.000285688E1
8.194382958E0,-1.567390594E0,-9.901908875E-1,9.993817749E0,1.016432902E1
8.204419958E0,-1.703457642E0,-1.103954315E0,1.002570145E1,1.022913352E1
8.214456959E0,-1.728904724E0,-1.184337158E0,9.994715881E0,1.021205717E1
8.224494958E0,-1.781146088E0,-1.245559845E0,9.947114868E0,1.018179723E1
8.234531959E0,-1.737287292E0,-1.290316772E0,9.844578094E0,1.007962313E1
8.244568958E0,-1.670526123E0,-1.334025879E0,9.783056030E0,1.001391371E1
8.254605958E0,-1.674717407E0,-1.328337708E0,9.788145447E0,1.001882981E1
8.264642959E0,-1.713935852E0,-1.351389771E0,9.808503113E0,1.004841101E1
8.274679959E0,-1.778900757E0,-1.357976074E0,9.949958954E0,1.019854255E1
8.284716958E0,-1.788630524E0,-1.342109070E0,1.005728577E1,1.030288566E1
8.294753958E0,-1.725611572E0,-1.322200470E0,9.968520355E0,1.020281076E1
8.304790959E0,-1.656754761E0,-1.229992218E0,9.779613190E0,9.994926280E0
8.314827958E0,-1.534608765E0,-1.117426300E0,9.707912292E0,9.891775709E0
8.324864958E0,-1.342408447E0,-1.017284546E0,9.751920776E0,9.896306741E0
8.334901959E0,-1.175355835E0,-9.295669556E-1,9.665251007E0,9.780727636E0
8.344939958E0,-1.061143341E0,-8.663983154E-1,9.478589172E0,9.577072827E0
8.354976959E0,-1.042881317E0,-8.343649292E-1,9.397008820E0,9.491445677E0
8.365013958E0,-1.347797241E0,-7.300318909E-1,9.456884308E0,9.580300871E0
8.375050958E0,-1.948498077E0,-7.126679993E-1,9.504784698E0,9.728590473E0
8.385087959E0,-2.549498291E0,-8.243357849E-1,9.439520416E0,9.812441934E0
8.395124959E0,-3.110381927E0,-8.884025574E-1,9.060059509E0,9.620208581E0
8.405161958E0,-3.050207062E0,-1.013692017E0,8.579858093E0,9.162166748E0
8.415198958E0,-2.588716736E0,-1.117575989E0,8.240663452E0,8.709705194E0
8.425235959E0,-2.071542206E0,-1.070424042E0,8.344996490E0,8.664644318E0
8.435272958E0,-1.573228455E0,-9.054670715E-1,8.737779694E0,8.924332600E0
8.445309958E0,-1.128353577E0,-7.165599060E-1,9.155860291E0,9.252914003E0
8.455346959E0,-7.056326294E-1,-5.632786560E-1,9.490564270E0,9.533415464E0
8.465384958E0,-5.655239868E-1,-5.011578369E-1,9.946965179E0,9.975624935E0
8.475421959E0,-4.830455017E-1,-4.400848389E-1,1.013168106E1,1.015273208E1
8.485458958E0,-2.481838989E-1,-3.300636292E-1,1.025861710E1,1.026692563E1
8.495495958E0,-9.071136475E-2,-3.152444458E-1,1.049901718E1,1.050414058E1
8.505532959E0,-1.815724182E-1,-2.930905151E-1,1.068029022E1,1.068585372E1
8.515569959E0,-3.143463135E-1,-2.430944824E-1,1.072923843E1,1.073659471E1
8.525606958E0,-4.960684204E-1,-2.496807861E-1,1.074615326E1,1.076049414E1
8.535643958E0,-8.095166016E-1,-3.174897766E-1,1.079001205E1,1.082499316E1
8.545680959E0,-1.138083344E0,-4.013154602E-1,1.071876022E1,1.078647804E1
8.555717958E0,-1.339264984E0,-4.564009094E-1,1.059242294E1,1.068650346E1
8.565754958E0,-1.392404480E0,-5.146298218E-1,1.043584854E1,1.054089981E1
8.575791959E0,-1.289867706E0,-5.737568665E-1,1.032388138E1,1.041995597E1
8.585829958E0,-1.174457703E0,-6.783892822E-1,1.037941589E1,1.046765672E1
8.595866959E0,-1.196012878E0,-7.744894409E-1,1.062774948E1,1.072284196E1
8.605903958E0,-1.206640778E0,-9.086105347E-1,1.085437820E1,1.095897264E1
8.615940958E0,-1.258882141E0,-1.094374237E0,1.112411728E1,1.124848543E1
8.625977959E0,-1.388063507E0,-1.333726501E0,1.138921600E1,1.155074837E1
8.636014959E0,-1.495090942E0,-1.605561218E0,1.176448563E1,1.196729902E1
8.646051958E0,-1.718725891E0,-1.895807648E0,1.223765167E1,1.250232873E1
8.656088958E0,-2.150428162E0,-2.115101624E0,1.258178604E1,1.293828954E1
8.666125959E0,-2.336341553E0,-2.269131317E0,1.255993149E1,1.297533536E1
8.676162958E0,-2.138752441E0,-2.296973419E0,1.219573883E1,1.259310901E1
8.686199958E0,-1.713486786E0,-2.157912598E0,1.161359940E1,1.193600916E1
8.696236959E0,-1.279688873E0,-1.834734650E0,1.115330658E1,1.137541659E1
8.706274958E0,-9.931846619E-1,-1.432071991E0,1.087398743E1,1.101275844E1
8.716311959E0,-9.812095642E-1,-1.069974976E0,1.063867676E1,1.073727441E1
8.726348958E0,-1.447340240E0,-8.184979248E-1,1.041204803E1,1.054397823E1
8.736385958E0,-2.635120239E0,-6.715036011E-1,9.895023193E0,1.026188383E1
8.746422959E0,-3.645668793E0,-6.716532898E-1,9.345665588E0,1.005402827E1
8.756459959E0,-3.984863434E0,-7.147636414E-1,8.596922607E0,9.502478728E0
8.766496958E0,-3.904330902E0,-7.828720093E-1,7.873027954E0,8.822769267E0
8.776533959E0,-3.601510620E0,-9.177415466E-1,7.227719879E0,8.127303547E0
8.786570959E0,-3.104993134E0,-1.039438477E0,6.844965820E0,7.587817327E0
8.796607958E0,-2.378254395E0,-1.108594666E0,6.730154572E0,7.223576445E0
8.806644958E0,-1.676214294E0,-1.045426025E0,6.726412354E0,7.010508761E0
8.816681959E0,-1.063688049E0,-1.007105713E0,7.009024658E0,7.160455352E0
8.826718958E0,-6.246510315E-1,-1.219364319E0,7.549700317E0,7.673005483E0
8.836756959E0,-3.838018799E-1,-1.557960205E0,8.281678162E0,8.435682371E0
8.846793958E0,-3.348536682E-1,-1.816023560E0,8.986712036E0,9.174478828E0
8.856830958E0,-4.707710266E-1,-2.045346680E0,9.412127380E0,9.643298721E0
8.866867959E0,-6.535409546E-1,-2.182910614E0,9.552535400E0,9.820547190E0
8.876904959E0,-8.384065247E-1,-2.176024933E0,9.641899567E0,9.919890990E0
8.886941958E0,-1.094074860E0,-2.155218201E0,9.799072723E0,1.009275936E1
8.896978959E0,-1.308429108E0,-1.995500336E0,1.004351440E1,1.032309013E1
8.907015959E0,-1.461560669E0,-1.707199860E0,1.029469208E1,1.053714268E1
8.917052958E0,-1.576521606E0,-1.358275452E0,1.053524185E1,1.073879199E1
8.927089958E0,-1.658551025E0,-8.557704163E-1,1.077803696E1,1.093842837E1
8.937126959E0,-1.557211761E0,-4.905299377E-1,1.074660233E1,1.086991213E1
8.947163958E0,-1.291214905E0,-2.844085693E-1,1.041219772E1,1.049580800E1
8.957201959E0,-9.780661011E-1,-2.667453003E-1,9.982740784E0,1.003408590E1
8.967238958E0,-6.539900208E-1,-3.523672485E-1,9.408983917E0,9.438264882E0
8.977275958E0,-3.540138245E-1,-4.056564331E-1,8.782985687E0,8.799472741E0
8.987312959E0,-1.907034302E-1,-3.775149536E-1,8.409063263E0,8.419693005E0
8.997349959E0,8.098159790E-2,-3.293151855E-1,8.246501312E0,8.253471415E0
9.007386958E0,2.474354553E-1,-2.806663513E-1,8.197553101E0,8.206087664E0
9.017423959E0,2.935395813E-1,-2.375559998E-1,8.311615906E0,8.320189740E0
9.027460959E0,4.128414917E-1,-3.109034729E-1,8.428522797E0,8.444352882E0
9.037497958E0,5.125341797E-1,-4.475692749E-1,8.555458832E0,8.582475480E0
9.047534958E0,5.824388123E-1,-5.595364380E-1,8.673862610E0,8.711383849E0
9.057571959E0,5.149291992E-1,-6.840774536E-1,8.665779419E0,8.707976055E0
9.067608958E0,3.179388428E-1,-8.881031799E-1,8.677155762E0,8.728278437E0
9.077645958E0,1.959425354E-1,-1.078806610E0,8.773555298E0,8.841803535E0
9.087682959E0,-5.284011841E-2,-1.239422607E0,8.878487091E0,8.964736109E0
9.097720958E0,-3.134481812E-1,-1.197958832E0,9.114995270E0,9.198722405E0
9.107757959E0,-5.625302124E-1,-1.109792175E0,9.401798859E0,9.483770384E0
9.117794958E0,-8.008346558E-1,-9.671388245E-1,9.666598206E0,9.747810755E0
9.127831958E0,-1.102906494E0,-7.788304138E-1,9.999505920E0,1.009024768E1
9.137868959E0,-1.303639069E0,-4.893324280E-1,1.034992722E1,1.044317549E1
9.147905959E0,-1.369502106E0,-1.086740112E-1,1.048479675E1,1.057441767E1
9.157942958E0,-1.467099152E0,1.725910950E-1,1.049931656E1,1.060272681E1
9.167979958E0,-1.431622925E0,4.179309082E-1,1.041234741E1,1.051861156E1
9.178016959E0,-1.286424866E0,5.981561279E-1,1.017119888E1,1.026966243E1
9.188053958E0,-1.144070892E0,6.905140686E-1,9.864486694E0,9.954587165E0
9.198090958E0,-9.952803040E-1,7.138655090E-1,9.561217346E0,9.639349770E0
9.208127959E0,-8.587641907E-1,7.750881958E-1,9.375753021E0,9.446850394E0
9.218165958E0,-7.083270264E-1,8.020321655E-1,9.144633636E0,9.207024879E0
9.228202959E0,-5.613327026E-1,6.638694763E-1,8.931476898E0,8.973689134E0
9.238239958E0,-4.490661621E-1,4.439767456E-1,8.820707245E0,8.843282878E0
9.248276958E0,-4.050576782E-1,1.842668152E-1,8.735983429E0,8.747310012E0
9.258313959E0,-4.721182251E-1,-1.466949463E-2,8.693771210E0,8.706593402E0
9.268350959E0,-5.526507568E-1,-2.543211365E-1,8.522976379E0,8.544660816E0
9.278387958E0,-6.613247681E-1,-6.170169067E-1,8.383017426E0,8.431668961E0
9.288424958E0,-5.686674500E-1,-9.114546204E-1,8.253536682E0,8.323160455E0
9.298461959E0,-4.185296631E-1,-1.012644196E0,7.916886749E0,7.992353292E0
9.308498958E0,-3.475772095E-1,-9.401948547E-1,7.772586823E0,7.836956182E0
9.318535958E0,-3.010240173E-1,-8.304730225E-1,7.876021729E0,7.925403407E0
9.328572959E0,-3.748205566E-1,-6.442602539E-1,8.226592712E0,8.260289909E0
9.338610958E0,-6.171665955E-1,-3.634442139E-1,8.809031525E0,8.838100628E0
9.348647959E0,-6.991960144E-1,-6.676116943E-2,9.315578156E0,9.342019508E0
9.358684958E0,-7.273374939E-1,2.927911377E-1,9.823921051E0,9.855159628E0
9.368721958E0,-7.515870667E-1,7.188052368E-1,1.035920792E1,1.041128007E1
9.378758959E0,-6.417155457E-1,1.122665405E0,1.078552139E1,1.086276430E1
9.388795959E0,-4.474195862E-1,1.316362610E0,1.121887024E1,1.130469125E1
9.398832958E0,-2.945874023E-1,1.131646729E0,1.160581558E1,1.166457721E1
9.408869958E0,-2.685415649E-1,7.933502197E-1,1.200443665E1,1.203362033E1
9.418906959E0,-2.017803955E-1,5.676196289E-1,1.201910614E1,1.203419377E1
9.428943958E0,-2.874023438E-2,5.028044128E-1,1.158455978E1,1.159550187E1
9.438980958E0,1.898052979E-1,4.394860840E-1,1.108115662E1,1.109149251E1
9.449017501E0,2.869532776E-1,3.258723450E-1,1.072250244E1,1.073129040E1
9.459054500E0,3.032693481E-1,2.453398132E-1,1.052655991E1,1.053378505E1
9.469092500E0,2.312690735E-1,1.487905884E-1,1.053524185E1,1.053883034E1
9.479129500E0,-2.948867798E-2,-1.646575928E-2,1.067490143E1,1.067495486E1
9.489166500E0,-3.531156921E-1,-2.531236267E-1,1.088311844E1,1.089178724E1
9.499203500E0,-6.432124329E-1,-4.303550720E-1,1.109941864E1,1.112636607E1
9.509240500E0,-8.693920898E-1,-5.547463989E-1,1.131317413E1,1.136008341E1
9.519277500E0,-1.053958282E0,-6.948550415E-1,1.166643951E1,1.173454143E1
9.529314500E0,-1.228645020E0,-7.409591675E-1,1.203272781E1,1.211796714E1
9.539351500E0,-1.288071442E0,-5.499563599E-1,1.219708603E1,1.227723453E1
9.549388500E0,-1.203946381E0,-1.351689148E-1,1.215592163E1,1.221614457E1
9.559425500E0,-9.722282410E-1,2.716850281E-1,1.219484070E1,1.223655099E1
9.569462501E0,-6.554869080E-1,6.590794373E-1,1.236803055E1,1.240291209E1
9.579499500E0,-3.811074829E-1,1.114133148E0,1.270857239E1,1.276300700E1
9.589536500E0,-1.197509766E-1,1.671573944E0,1.306153839E1,1.316860983E1
9.599574500E0,1.501377869E-1,2.063908081E0,1.327993423E1,1.344019759E1
9.609611500E0,3.453318787E-1,2.180515594E0,1.315614166E1,1.334008867E1
9.619648500E0,3.091072083E-1,2.106719055E0,1.284269348E1,1.301801015E1
9.629685500E0,-9.175918579E-2,1.914069672E0,1.250334915E1,1.264934079E1
9.639722500E0,-5.075944519E-1,1.535806274E0,1.209814178E1,1.220579320E1
9.649759500E0,-7.066804504E-1,8.508306885E-1,1.133832184E1,1.139213993E1
9.659796500E0,-1.103954315E0,1.904040527E-1,1.029544052E1,1.035620898E1
9.669833500E0,-1.793869629E0,-1.713935852E-1,9.422306213E0,9.593080756E0
9.679870500E0,-2.345921631E0,-4.987628174E-1,8.969198456E0,9.284321924E0
9.689907501E0,-2.767594757E0,-8.704399109E-1,8.890611877E0,9.352017212E0
9.699944500E0,-3.096909943E0,-1.030756531E0,9.022487640E0,9.594716955E0
9.709981500E0,-3.179388428E0,-9.584568787E-1,9.146878967E0,9.731009465E0
9.720018500E0,-3.090024261E0,-9.066645813E-1,9.231752472E0,9.777297393E0
9.730056500E0,-2.971919861E0,-1.052311707E0,9.328002319E0,9.846384862E0
9.740093500E0,-2.879711609E0,-1.216969299E0,9.321266327E0,9.831569517E0
9.750130500E0,-2.795287170E0,-1.262175293E0,9.164691925E0,9.664279327E0
9.760167500E0,-2.621648254E0,-1.232686615E0,9.056766357E0,9.508815526E0
9.770204500E0,-2.464924164E0,-1.213227081E0,9.004824371E0,9.414596807E0
9.780241500E0,-2.420765991E0,-1.091679840E0,9.038204956E0,9.420245309E0
9.790278500E0,-2.388283539E0,-9.395960999E-1,9.230554962E0,9.580703732E0
9.800315500E0,-2.365530853E0,-8.554710388E-1,9.371711426E0,9.703429392E0
9.810352501E0,-2.270179138E0,-7.589218140E-1,9.331594849E0,9.633708427E0
9.820389500E0,-2.100282440E0,-6.628216553E-1,9.263636169E0,9.521841941E0
9.830426500E0,-1.891766052E0,-6.265969849E-1,9.120683441E0,9.335859308E0
9.840463500E0,-1.734892273E0,-6.038442993E-1,9.053772583E0,9.238250761E0
9.850500500E0,-1.619482269E0,-5.432203674E-1,9.009015656E0,9.169524212E0
9.860538500E0,-1.585652618E0,-4.899311829E-1,8.944499817E0,9.097164600E0
9.870575500E0,-1.512454834E0,-4.165837097E-1,8.852141876E0,8.990076608E0
9.880612500E0,-1.517394562E0,-3.294648743E-1,8.629854126E0,8.768432904E0
9.890649500E0,-1.664089508E0,-3.245251465E-1,8.658294983E0,8.822731010E0
9.900686500E0,-1.782642975E0,-2.423460388E-1,8.724158020E0,8.907720288E0
9.910723500E0,-1.811083832E0,-1.261875916E-1,8.832981720E0,9.017622415E0
9.920760500E0,-1.733994141E0,-1.091230774E-1,9.040599976E0,9.206035599E0
9.930797500E0,-1.772164764E0,-3.906875610E-2,9.325457611E0,9.492431405E0
9.940834500E0,-1.886976013E0,3.487747192E-2,9.588610382E0,9.772581234E0
9.950871500E0,-2.056124268E0,8.008346558E-2,9.818232880E0,1.003153813E1
9.960908500E0,-2.254461823E0,4.281097412E-2,9.972561951E0,1.022430549E1
9.970945500E0,-2.344873810E0,4.505630493E-2,1.002106110E1,1.029184768E1
9.980982500E0,-2.455194397E0,5.777984619E-2,1.003318588E1,1.032938222E1
9.991020500E0,-2.408042450E0,8.382568359E-2,9.903705139E0,1.019259882E1
1.000105750E1,-2.209704895E0,8.951385498E-2,9.679321747E0,9.928750069E0
1.001109450E1,-2.013313293E0,9.265731812E-2,9.410181427E0,9.623592379E0
1.002113150E1,-1.835782471E0,4.161346436E-2,9.203760681E0,9.385149953E0
1.003116850E1,-1.805395660E0,5.912704468E-2,9.076824646E0,9.254820104E0
1.004120550E1,-1.656455383E0,9.011260986E-2,8.908125458E0,9.061272752E0
1.005124250E1,-1.479673004E0,1.279838562E-1,8.710686035E0,8.836394246E0
1.006127950E1,-1.422791290E0,2.053729248E-1,8.587492218E0,8.706982008E0
1.007131650E1,-1.367855530E0,2.390528870E-1,8.548423462E0,8.660468735E0
1.008135350E1,-1.194216614E0,2.421963501E-1,8.531358948E0,8.617940467E0
1.009139050E1,-1.022523651E0,2.347119141E-1,8.586145020E0,8.650001769E0
1.010142750E1,-1.011147308E0,1.746867371E-1,8.669072571E0,8.729590688E0
1.011146450E1,-9.843530273E-1,9.849517822E-2,8.787326660E0,8.842836763E0
1.012150250E1,-1.059047699E0,2.739303589E-2,9.009464722E0,9.071537189E0
1.013153950E1,-1.269060974E0,-6.885681152E-2,9.110055542E0,9.198280763E0
1.014157650E1,-1.475781097E0,-1.471440125E-1,9.258097687E0,9.376137477E0
1.015161350E1,-1.626367950E0,-2.350112915E-1,9.329648895E0,9.473259815E0
1.016165050E1,-1.664388885E0,-3.037184143E-1,9.277407532E0,9.430414930E0
1.017168750E1,-1.647923126E0,-3.318598938E-1,9.254804535E0,9.406231371E0
1.018172450E1,-1.657652893E0,-3.153941345E-1,9.323212280E0,9.474680670E0
1.019176150E1,-1.571432190E0,-2.650987244E-1,9.387279053E0,9.521590438E0
1.020179850E1,-1.389111328E0,-3.362008667E-1,9.429191895E0,9.536892633E0
1.021183550E1,-1.343456268E0,-3.900888062E-1,9.555080109E0,9.656945682E0
1.022187250E1,-1.324296112E0,-3.367996216E-1,9.641749878E0,9.738097088E0
1.023190950E1,-1.177750854E0,-2.354603577E-1,9.776469727E0,9.849969491E0
1.024194650E1,-1.081501007E0,-1.863624573E-1,9.940977631E0,1.000137049E1
1.025198450E1,-1.052461395E0,-1.675016785E-1,1.012105316E1,1.017700589E1
1.026202150E1,-1.057850189E0,-1.234931946E-1,1.041249710E1,1.046682347E1
1.027205850E1,-9.818083191E-1,-2.874023438E-2,1.064601151E1,1.069122699E1
1.028209550E1,-8.915460205E-1,-6.107299805E-2,1.079345490E1,1.083038563E1
1.029213250E1,-8.339158630E-1,-2.317181396E-1,1.085333038E1,1.088778625E1
1.030216950E1,-9.009764099E-1,-5.167254639E-1,1.106992996E1,1.111854815E1
1.031220650E1,-1.042432251E0,-8.641529846E-1,1.145358215E1,1.153334165E1
1.032224350E1,-1.064885559E0,-1.056353302E0,1.180460220E1,1.189951666E1
1.033228050E1,-1.022823029E0,-1.093027039E0,1.210622498E1,1.219842442E1
1.034231750E1,-1.063388672E0,-1.089733887E0,1.244886246E1,1.254163035E1
1.035235450E1,-1.344504089E0,-1.027613068E0,1.285047729E1,1.296142147E1
1.036239150E1,-1.715582428E0,-9.755213928E-1,1.307785446E1,1.322592690E1
1.037242850E1,-1.943857727E0,-9.566606140E-1,1.310285248E1,1.328075771E1
1.038246650E1,-1.887125702E0,-1.010548553E0,1.295585815E1,1.313151599E1
1.039250350E1,-1.662891998E0,-1.048120422E0,1.225815903E1,1.241475851E1
1.040254050E1,-1.552421722E0,-9.511221313E-1,1.134371063E1,1.148888234E1
1.041257750E1,-1.355880432E0,-8.803193665E-1,1.036624329E1,1.049153820E1
1.042261450E1,-7.388635254E-1,-6.966513062E-1,9.386979675E0,9.441749296E0
1.043265150E1,-8.457412720E-2,-4.472698975E-1,8.648864594E0,8.660834942E0
1.044268846E1,2.809657288E-1,-3.089575195E-1,8.218210144E0,8.228813673E0
1.045272546E1,3.882925415E-1,-1.836680603E-1,8.016130371E0,8.027630484E0
1.046276246E1,3.817062378E-1,-8.232879639E-2,7.911348267E0,7.920979048E0
1.047279946E1,2.851570129E-1,-4.490661621E-4,7.860454102E0,7.865624794E0
1.048283646E1,1.002914429E-1,1.826202393E-2,7.909701691E0,7.910358570E0
1.049287346E1,-3.233276367E-2,-8.397537231E-2,7.932005310E0,7.932515711E0
1.050291046E1,-1.113684082E-1,-2.445913696E-1,7.969726868E0,7.974256969E0
1.051294746E1,-1.592687988E-1,-4.237687683E-1,8.015681305E0,8.028455225E0
1.052298446E1,-3.005749512E-1,-4.971162415E-1,8.215515747E0,8.236028706E0
1.053302246E1,-4.370910645E-1,-4.836442566E-1,8.456215210E0,8.481305091E0
1.054305946E1,-4.472698975E-1,-4.920268250E-1,8.799002380E0,8.824091095E0
1.055309646E1,-4.583468628E-1,-4.444258118E-1,9.224717102E0,9.246783320E0
1.056313346E1,-4.499642944E-1,-3.481759644E-1,9.584419098E0,9.601290737E0
1.057317046E1,-4.336482239E-1,-2.522254944E-1,9.921667786E0,9.934342461E0
1.058320746E1,-5.020559692E-1,-2.348616028E-1,1.011850845E1,1.013367818E1
1.059324446E1,-5.821394348E-1,-2.133064270E-1,1.014245865E1,1.016139033E1
1.060328146E1,-6.499484253E-1,-2.685415649E-1,9.957144012E0,9.981946925E0
1.061331846E1,-7.725434875E-1,-3.537144470E-1,9.679321747E0,9.716542946E0
1.062335546E1,-9.147477722E-1,-4.388873291E-1,9.438622284E0,9.492996165E0
1.063339246E1,-9.443861389E-1,-4.887336731E-1,9.226363678E0,9.287438425E0
1.064342946E1,-9.074130249E-1,-4.284091187E-1,9.046138458E0,9.101623689E0
1.065346646E1,-9.601034546E-1,-2.948867798E-1,8.896599426E0,8.953113325E0
1.066350446E1,-8.948391724E-1,-1.278341675E-1,8.749904480E0,8.796471288E0
1.067354146E1,-8.366102600E-1,5.688171387E-3,8.625513153E0,8.665992513E0
1.068357846E1,-9.089099121E-1,4.370910645E-2,8.634344788E0,8.682162036E0
1.069361546E1,-1.029559021E0,9.250762939E-2,8.611292725E0,8.673114310E0
1.070365246E1,-1.070573730E0,1.672023010E-1,8.556207275E0,8.624544490E0
1.071368946E1,-1.040635986E0,1.788780212E-1,8.579259338E0,8.643992793E0
1.072372646E1,-1.055155792E0,1.567240906E-1,8.720116425E0,8.785120753E0
1.073376346E1,-9.913883972E-1,8.173004150E-2,8.820407867E0,8.876323884E0
1.074380046E1,-8.415499878E-1,-2.035766602E-2,8.878038025E0,8.917857365E0
1.075383746E1,-8.017327881E-1,-1.887574768E-1,9.109157410E0,9.146319126E0
1.076387446E1,-6.854246521E-1,-2.618055725E-1,9.331744537E0,9.360545135E0
1.077391146E1,-5.840853882E-1,-2.631527710E-1,9.507179718E0,9.528739230E0
1.078394846E1,-5.385800171E-1,-3.302133179E-1,9.662406921E0,9.683037580E0
1.079398646E1,-4.384382629E-1,-4.004173279E-1,9.783954163E0,9.801954968E0
1.080402346E1,-3.450325012E-1,-4.189787292E-1,9.770482178E0,9.785546106E0
1.081406046E1,-2.851570129E-1,-2.730322266E-1,9.733359375E0,9.741362628E0
1.082409746E1,-1.836680603E-1,-7.095245361E-2,9.614506531E0,9.616522450E0
1.083413446E1,-1.309776306E-1,7.948471069E-2,9.510173492E0,9.511407510E0
1.084417146E1,-9.250762939E-2,1.448986816E-1,9.396110687E0,9.397683190E0
1.085420846E1,-7.993377686E-2,2.330653381E-1,9.344168701E0,9.347416626E0
1.086424546E1,-7.604187012E-2,3.589535522E-1,9.342073059E0,9.349275858E0
1.087428246E1,-3.427871704E-2,4.345463562E-1,9.463171234E0,9.473205127E0
1.088431946E1,-3.652404785E-2,4.318519592E-1,9.612859955E0,9.622624727E0
1.089435646E1,2.245330811E-2,3.999682617E-1,9.672885132E0,9.681176867E0
1.090439346E1,7.125183105E-2,3.255729675E-1,9.661059723E0,9.666806585E0
1.091443046E1,6.107299805E-2,2.206411743E-1,9.667346649E0,9.670057067E0
1.092446746E1,-4.550537109E-2,1.294807434E-1,9.640702057E0,9.641678907E0
1.093450546E1,-2.306703186E-1,-1.227447510E-2,9.613907776E0,9.616682494E0
1.094454246E1,-4.920268250E-1,-2.070195007E-1,9.547445984E0,9.562357047E0
1.095457946E1,-8.069718933E-1,-3.496728516E-1,9.462273102E0,9.503056718E0
1.096461646E1,-1.099164276E0,-5.001100159E-1,9.801767120E0,9.875875192E0
1.097465346E1,-1.379381561E0,-5.189707947E-1,1.019275406E1,1.029875038E1
1.098469046E1,-1.478774872E0,-3.097059631E-1,1.029274612E1,1.040304358E1
1.099472746E1,-1.322350159E0,-1.291813660E-1,1.008138565E1,1.016856108E1
1.100476446E1,-9.412426758E-1,-6.077362061E-2,9.865833893E0,9.910817807E0
1.101480146E1,-4.245172119E-1,-2.230361938E-2,9.725276184E0,9.734562608E0
1.102483846E1,-8.711883545E-2,8.457412720E-2,9.770631866E0,9.771386265E0
1.103487546E1,1.248403931E-1,1.302291870E-1,9.791737976E0,9.793399683E0
1.104491246E1,2.348616028E-1,2.993774414E-4,9.837393036E0,9.840196228E0
1.105494946E1,2.324665833E-1,-1.960922241E-1,9.846973114E0,9.851668507E0
1.106498646E1,1.607656860E-1,-2.724334717E-1,9.753866730E0,9.758994917E0
1.107502446E1,7.798782349E-2,-1.922003174E-1,9.695787506E0,9.698005899E0
1.108506146E1,-7.185058594E-2,-2.191442871E-1,9.984986115E0,9.987649094E0
1.109509846E1,-3.685336304E-1,-5.041516113E-1,1.069720505E1,1.071541794E1
1.110513546E1,-6.973997498E-1,-7.611671448E-1,1.145223495E1,1.149867068E1
1.111517246E1,-8.340655518E-1,-1.005908203E0,1.207793381E1,1.214841561E1
1.112520946E1,-8.863069153E-1,-1.216520233E0,1.268716690E1,1.277613656E1
1.113524646E1,-1.085093536E0,-1.478774872E0,1.321960968E1,1.334624603E1
1.114528346E1,-1.345252533E0,-1.632505188E0,1.356359436E1,1.372755876E1
1.115532046E1,-1.397344208E0,-1.385967865E0,1.365969452E1,1.380075114E1
1.116535746E1,-1.196611633E0,-9.154962158E-1,1.333037933E1,1.341525348E1
1.117539446E1,-8.756790161E-1,-3.082090759E-1,1.280736694E1,1.284096782E1
1.118543146E1,-5.709127808E-1,3.049159241E-1,1.211820007E1,1.213547231E1
1.119546846E1,-3.700305176E-1,8.090675354E-1,1.145118713E1,1.148569544E1
1.120550546E1,-2.598596191E-1,1.123713226E0,1.093865295E1,1.099929029E1
1.121554346E1,-3.998185730E-1,1.291813660E0,1.037447617E1,1.046223653E1
1.122558046E1,-5.773493958E-1,1.280437317E0,9.790390778E0,9.890632115E0
1.123561746E1,-7.707472229E-1,1.108894043E0,9.224417725E0,9.322745284E0
1.124565446E1,-1.031804352E0,9.217831421E-1,8.798253937E0,8.906378429E0
1.125569146E1,-1.331780548E0,7.020401001E-1,8.492140503E0,8.624555064E0
1.126572846E1,-1.653611298E0,4.796026611E-1,8.343499603E0,8.519297780E0
1.127576546E1,-1.854643250E0,3.508703613E-1,8.389753418E0,8.599463588E0
1.128580246E1,-1.918560333E0,1.764830017E-1,8.422235870E0,8.639796124E0
1.129583946E1,-1.912423096E0,-6.017486572E-2,8.468789062E0,8.682244600E0
1.130587646E1,-1.726958771E0,-2.745291138E-1,8.543932800E0,8.721040106E0
1.131591346E1,-1.465751953E0,-4.881349182E-1,8.692424011E0,8.828643139E0
1.132595046E1,-1.215023346E0,-6.068380737E-1,9.033115540E0,9.134643427E0
1.133598746E1,-9.138496399E-1,-6.409671021E-1,9.409133606E0,9.475112411E0
1.134602446E1,-5.963598633E-1,-6.010002136E-1,9.752220154E0,9.788904140E0
1.135606246E1,-3.159928894E-1,-4.818479919E-1,1.006372238E1,1.008020521E1
1.136609946E1,-1.493893433E-1,-3.147953796E-1,1.039273819E1,1.039857781E1
1.137613646E1,-6.676116943E-2,-1.508862305E-1,1.070573730E1,1.070700868E1
1.138617346E1,-9.430389404E-2,-5.074447632E-2,1.090123077E1,1.090175677E1
1.139621046E1,-2.210902405E-1,5.837860107E-3,1.086335953E1,1.086561067E1
1.140624746E1,-3.888912964E-1,-8.382568359E-3,1.057026901E1,1.057742377E1
1.141628446E1,-5.698649597E-1,-4.550537109E-2,1.023077499E1,1.024673479E1
1.142632146E1,-6.607260132E-1,4.909790039E-2,9.816436615E0,9.838770110E0
1.143635846E1,-7.650590515E-1,6.496490479E-2,9.313781891E0,9.345376873E0
1.144639533E1,-8.551716614E-1,9.864486694E-2,8.921447754E0,8.962883431E0
1.145643233E1,-1.006057892E0,9.759704590E-2,8.728349304E0,8.786680786E0
1.146646933E1,-1.033151550E0,1.197509766E-2,8.657396851E0,8.718833968E0
1.147650633E1,-1.033600616E0,-1.082249451E-1,8.747210083E0,8.808730164E0
1.148654333E1,-1.123713226E0,-2.299218750E-1,8.836274872E0,8.910406786E0
1.149658033E1,-1.113384705E0,-1.377136230E-1,8.756490784E0,8.828064419E0
1.150661833E1,-8.047265625E-1,1.176553345E-1,8.748108215E0,8.785830921E0
1.151665533E1,-6.777905273E-1,2.888992310E-1,8.869954834E0,8.900503442E0
1.152669233E1,-6.737489319E-1,3.047662354E-1,9.191635895E0,9.221333445E0
1.153672933E1,-5.981561279E-1,2.610571289E-1,9.468410339E0,9.490876458E0
1.154676633E1,-4.755610657E-1,2.341131592E-1,9.506580963E0,9.521347011E0
1.155680333E1,-3.447331238E-1,2.640509033E-1,9.284891968E0,9.295040756E0
1.156684033E1,-2.245330811E-1,2.945874023E-1,8.876241760E0,8.883966717E0
1.157687733E1,-1.749861145E-1,2.770738220E-1,8.648116150E0,8.654322792E0
1.158691433E1,-1.025367737E-1,2.038760376E-1,8.664881287E0,8.667885956E0
1.159695133E1,1.496887207E-3,1.924996948E-1,8.784781952E0,8.786890936E0
1.160698833E1,2.170486450E-2,2.824626160E-1,8.951684875E0,8.956166498E0
1.161702533E1,7.035369873E-2,4.001179504E-1,9.116941223E0,9.125988236E0
1.162706233E1,-1.047821045E-2,5.069956970E-1,9.285191345E0,9.299028592E0
1.163709933E1,-9.654922485E-2,5.367837524E-1,9.385482788E0,9.401316169E0
1.164713733E1,-1.945953369E-1,4.604425049E-1,9.436376953E0,9.449607645E0
1.165717433E1,-2.823129272E-1,3.550616455E-1,9.442364502E0,9.453254294E0
1.166721133E1,-3.233276367E-1,2.098635864E-1,9.495354309E0,9.503175098E0
1.167724833E1,-3.344046021E-1,1.210981750E-1,9.616452484E0,9.623027049E0
1.168728533E1,-5.095404053E-1,3.742218018E-3,9.723779297E0,9.737121199E0
1.169732233E1,-6.315367126E-1,-4.864883423E-2,9.799970856E0,9.820419243E0
1.170735933E1,-7.201524353E-1,-4.221221924E-2,9.906100159E0,9.932332141E0
1.171739633E1,-8.078700256E-1,-6.466552734E-2,9.991422729E0,1.002423881E1
1.172743333E1,-9.458830261E-1,-5.777984619E-2,1.010698242E1,1.015131158E1
1.173747033E1,-1.097667389E0,5.987548828E-3,1.023571472E1,1.029440457E1
1.174750733E1,-1.171463928E0,3.981719971E-2,1.041608963E1,1.048183363E1
1.175754433E1,-1.142723694E0,2.829116821E-2,1.039767792E1,1.046032141E1
1.176758133E1,-1.139729919E0,-2.903961182E-2,1.025682083E1,1.031999037E1
1.177761833E1,-9.659413147E-1,-9.729766846E-2,1.011850845E1,1.016497530E1
1.178765633E1,-7.435038757E-1,-1.350192261E-1,9.958191833E0,9.986821957E0
1.179769333E1,-5.718109131E-1,-1.639091492E-1,9.972412262E0,9.990137149E0
1.180773033E1,-3.110531616E-1,-2.734812927E-1,1.015667908E1,1.016512056E1
1.181776733E1,-2.392025757E-1,-6.274951172E-1,1.055065979E1,1.057200974E1
1.182780433E1,-2.959346008E-1,-1.028361511E0,1.113115265E1,1.118247128E1
1.183784133E1,-2.694396973E-1,-1.177002411E0,1.154564072E1,1.160860681E1
1.184787833E1,-2.561174011E-1,-1.151555328E0,1.179711777E1,1.185595477E1
1.185791533E1,-2.218386841E-1,-1.051712952E0,1.208901077E1,1.213670029E1
1.186795233E1,-2.194436646E-1,-9.101074219E-1,1.223375977E1,1.226952848E1
1.187798933E1,-2.282752991E-1,-7.203021240E-1,1.229752716E1,1.232071910E1
1.188802633E1,-1.857637024E-1,-3.715274048E-1,1.224827957E1,1.225532102E1
1.189806333E1,-1.440005493E-1,-2.993774414E-3,1.204964264E1,1.205050343E1
1.190810033E1,-3.667373657E-2,2.933898926E-1,1.164563278E1,1.164938563E1
1.191813733E1,2.333647156E-1,4.827461243E-1,1.105690704E1,1.106990046E1
1.192817433E1,3.180885315E-1,7.441026306E-1,1.071606583E1,1.074657787E1
1.193821233E1,3.309617615E-1,9.892927551E-1,1.064346680E1,1.069446685E1
1.194824933E1,3.592529297E-1,1.195264435E0,1.044887146E1,1.052314756E1
1.195828633E1,3.433859253E-1,1.427132263E0,1.005623795E1,1.016280188E1
1.196832333E1,4.668791199E-1,1.530267792E0,9.550439758E0,9.683521839E0
1.197836033E1,5.174739075E-1,1.489552460E0,9.122629395E0,9.257910825E0
1.198839733E1,4.561015320E-1,1.356479187E0,8.608149261E0,8.726299221E0
1.199843433E1,3.995191956E-1,1.082249451E0,8.082891541E0,8.164803434E0
1.200847133E1,4.511618042E-1,7.409591675E-1,7.701185303E0,7.749891775E0
1.201850833E1,4.730163574E-1,4.275109863E-1,7.384593658E0,7.412066758E0
1.202854533E1,5.474116516E-1,4.535568237E-2,7.284152527E0,7.304833652E0
1.203858233E1,6.364764404E-1,-3.260220337E-1,7.215146027E0,7.250498246E0
1.204861933E1,5.475613403E-1,-5.917195129E-1,7.450307007E0,7.493799430E0
1.205865633E1,5.574407959E-1,-7.286846924E-1,8.055049438E0,8.107129151E0
1.206869333E1,5.637277222E-1,-8.355624390E-1,8.662037201E0,8.720484046E0
1.207873033E1,5.938151550E-1,-1.019230499E0,9.239236908E0,9.314233511E0
1.208876833E1,6.768923950E-1,-1.243913269E0,9.638905792E0,9.742382070E0
1.209880533E1,7.536827087E-1,-1.361568604E0,9.790091400E0,9.913011465E0
1.210884233E1,8.071215820E-1,-1.355431366E0,9.718989258E0,9.846186654E0
1.211887933E1,7.704478455E-1,-1.283580780E0,9.608069916E0,9.724000052E0
1.212891633E1,6.433621216E-1,-1.176104279E0,9.522148590E0,9.616051678E0
1.213895333E1,4.909790039E-1,-1.032702484E0,9.511670380E0,9.580157004E0
1.214899033E1,3.794609070E-1,-8.276289368E-1,9.703421631E0,9.746042868E0
1.215902733E1,3.013233948E-1,-5.324427795E-1,9.811347198E0,9.830403092E0
1.216906433E1,1.004411316E-1,-2.897973633E-1,1.006207581E1,1.006674925E1
1.217910133E1,1.237925720E-1,-1.414558411E-1,1.028196854E1,1.028368666E1
1.218913833E1,2.507286072E-1,-1.556762695E-2,1.010009674E1,1.010322035E1
1.219917533E1,3.962260437E-1,9.325607300E-2,9.821076965E0,9.829508865E0
1.220921233E1,6.018983459E-1,1.618135071E-1,9.601633301E0,9.621841158E0
1.221924933E1,7.448510742E-1,1.887574768E-1,9.395811310E0,9.427178935E0
1.222928633E1,8.500822449E-1,1.652563477E-1,9.247170410E0,9.287632103E0
1.223932433E1,9.095086670E-1,1.619631958E-1,9.080566864E0,9.127438450E0
1.224936133E1,9.789642334E-1,1.104702759E-1,8.942254486E0,8.996359816E0
1.225939833E1,1.049467621E0,1.347198486E-3,8.921298065E0,8.982813772E0
1.226943533E1,9.987231445E-1,-1.321751404E-1,9.042994995E0,9.098938217E0
1.227947233E1,8.970845032E-1,-1.923500061E-1,9.118138733E0,9.164180983E0
1.228950933E1,9.235794067E-1,-2.625540161E-1,9.196575623E0,9.246563508E0
1.229954633E1,9.704319763E-1,-3.032693481E-1,9.330696716E0,9.385926258E0
1.230958333E1,1.044378204E0,-3.011737061E-1,9.389524384E0,9.452227229E0
1.231962033E1,1.082997894E0,-2.631527710E-1,9.431736603E0,9.497356957E0
1.232965733E1,1.152752838E0,-1.758842468E-1,9.523645477E0,9.594769281E0
1.233969433E1,1.178349609E0,-6.721023560E-2,9.506131897E0,9.579121497E0
1.234973133E1,1.198856964E0,-2.275268555E-2,9.508077850E0,9.583387716E0
1.235976833E1,1.207239532E0,7.080276489E-2,9.398655396E0,9.476136532E0
1.236980533E1,1.138532410E0,2.222877502E-1,9.279652863E0,9.351878161E0
1.237984233E1,9.804611206E-1,3.218307495E-1,9.225615234E0,9.283149007E0
1.238988033E1,8.295748901E-1,3.882925415E-1,9.301956482E0,9.346943885E0
1.239991733E1,7.246430969E-1,3.444337463E-1,9.426347809E0,9.460432085E0
1.240995433E1,6.725514221E-1,1.902543640E-1,9.485175476E0,9.510892490E0
1.241999133E1,6.950047302E-1,7.589218140E-2,9.464518433E0,9.490305599E0
1.243002833E1,7.104226685E-1,7.484436035E-2,9.401948547E0,9.429047594E0
1.244006533E1,7.816744995E-1,1.321751404E-1,9.383985901E0,9.417413481E0
1.245010283E1,9.345066833E-1,1.856140137E-1,9.328451385E0,9.376980354E0
1.246013983E1,9.888436890E-1,1.679507446E-1,9.162296906E0,9.217033356E0
1.247017683E1,9.367520142E-1,1.811233521E-1,9.065897369E0,9.115964300E0
1.248021383E1,9.000782776E-1,2.368075562E-1,9.041498108E0,9.089274270E0
1.249025083E1,7.978408813E-1,2.878514099E-1,9.066496124E0,9.106083707E0
1.250028783E1,6.944059753E-1,3.838018799E-1,9.266480255E0,9.300384931E0
1.251032483E1,6.514453125E-1,4.950205994E-1,9.546996918E0,9.581992305E0
1.252036183E1,6.474037170E-1,5.562432861E-1,9.728269958E0,9.765642557E0
1.253039883E1,6.851252747E-1,5.140310669E-1,9.786498871E0,9.823908831E0
1.254043683E1,8.360115051E-1,4.763095093E-1,9.829758911E0,9.876737631E0
1.255047383E1,9.392967224E-1,4.704716492E-1,9.881102142E0,9.936790299E0
1.256051083E1,9.897418213E-1,4.457730103E-1,9.888885956E0,9.948284671E0
1.257054783E1,1.038390656E0,3.635939026E-1,1.002495300E1,1.008514444E1
1.258058483E1,1.189276886E0,3.635939026E-1,1.025173141E1,1.032688612E1
1.259062183E1,1.146166534E0,4.839436340E-1,1.029334488E1,1.036826157E1
1.260065883E1,9.584568787E-1,5.740562439E-1,1.038360718E1,1.044353763E1
1.261069583E1,9.367520142E-1,6.265969849E-1,1.055320450E1,1.061321126E1
1.262073283E1,9.312135315E-1,6.249504089E-1,1.054272629E1,1.060220728E1
1.263076983E1,8.732839966E-1,6.780899048E-1,1.049796936E1,1.055603105E1
1.264080683E1,9.253756714E-1,6.595285034E-1,1.046099625E1,1.052253489E1
1.265084383E1,9.069639587E-1,6.480024719E-1,1.044797333E1,1.050726594E1
1.266088083E1,8.101153564E-1,6.523434448E-1,1.041100021E1,1.046282774E1
1.267091783E1,7.867639160E-1,6.291416931E-1,1.032118698E1,1.037023227E1
1.268095483E1,7.933502197E-1,6.029461670E-1,1.017389328E1,1.022257566E1
1.269099283E1,6.825805664E-1,5.644761658E-1,1.013796799E1,1.017658806E1
1.270102983E1,4.278103638E-1,3.534150696E-1,1.015503250E1,1.017018235E1
1.271106683E1,1.405577087E-1,-7.604187012E-2,1.038405624E1,1.038528588E1
1.272110383E1,-9.580078125E-2,-4.312532043E-1,1.043480072E1,1.044414780E1
1.273114083E1,-2.406994629E-1,-5.173242188E-1,1.044782364E1,1.046339235E1
1.274117783E1,-3.249742126E-1,-6.906637573E-1,1.054482193E1,1.057241194E1
1.275121483E1,-2.101629639E-1,-9.565109253E-1,1.064601151E1,1.069096079E1
1.276125183E1,6.945556641E-2,-9.886940002E-1,1.068912186E1,1.073497396E1
1.277128883E1,3.532653809E-1,-7.006929016E-1,1.063852707E1,1.066742824E1
1.278132583E1,5.983058167E-1,-2.969824219E-1,1.061757065E1,1.063856075E1
1.279136283E1,7.032376099E-1,-3.158432007E-2,1.055410263E1,1.057755279E1
1.280139983E1,8.072712708E-1,2.597099304E-1,1.039618103E1,1.043071024E1
1.281143683E1,8.494834900E-1,5.511538696E-1,1.002106110E1,1.007209304E1
1.282147383E1,7.857160950E-1,7.929011536E-1,9.646090851E0,9.710463981E0
1.283151083E1,6.867718506E-1,8.999285889E-1,9.249415741E0,9.318434342E0
1.284154883E1,5.215155029E-1,9.812095642E-1,8.900191956E0,8.969290244E0
1.285158583E1,3.561094666E-1,1.045875092E0,8.614436188E0,8.684997380E0
1.286162283E1,1.936972046E-1,9.731263733E-1,8.403824158E0,8.462195579E0
1.287165983E1,5.927673340E-2,7.729925537E-1,8.342900848E0,8.378843941E0
1.288169683E1,1.182540894E-2,5.264552307E-1,8.310717773E0,8.327384035E0
1.289173383E1,-1.095721436E-1,3.209326172E-1,8.333620148E0,8.340517284E0
1.290177083E1,-2.868035889E-1,3.577560425E-2,8.599766693E0,8.604622210E0
1.291180783E1,-4.016148376E-1,-2.823129272E-1,9.086105347E0,9.099357419E0
1.292184483E1,-4.830455017E-1,-5.977070618E-1,9.543105011E0,9.573998117E0
1.293188183E1,-5.421725464E-1,-8.864566040E-1,9.984237671E0,1.003816508E1
1.294191883E1,-4.843927002E-1,-1.018631744E0,1.038255936E1,1.044364810E1
1.295195583E1,-2.914439392E-1,-9.315129089E-1,1.076606186E1,1.081021479E1
1.296199283E1,-6.496490479E-2,-8.891510010E-1,1.119761444E1,1.123304852E1
1.297202983E1,1.689985657E-1,-8.373587036E-1,1.152977371E1,1.156137587E1
1.298206683E1,5.053491211E-1,-6.968009949E-1,1.171389084E1,1.174547351E1
1.299210383E1,7.638615417E-1,-6.045927429E-1,1.174188263E1,1.178222494E1
1.300214183E1,9.407936096E-1,-5.733078003E-1,1.159683426E1,1.164904886E1
1.301217883E1,1.025966492E0,-4.806504822E-1,1.129072083E1,1.134742301E1
1.302221583E1,9.592053223E-1,-3.950285339E-1,1.097323105E1,1.102215596E1
1.303225283E1,7.584727478E-1,-3.649411011E-1,1.065259781E1,1.068579913E1
1.304228983E1,4.887336731E-1,-3.379971313E-1,1.033810181E1,1.035516546E1
1.305232683E1,1.528321838E-1,-4.092489624E-1,9.965676270E0,9.975246659E0
1.306236383E1,-1.359173584E-1,-4.852908325E-1,9.639055481E0,9.652221055E0
1.307240083E1,-3.430865479E-1,-5.584886169E-1,9.471404114E0,9.494056762E0
1.308243783E1,-4.784051514E-1,-6.405180359E-1,9.309590607E0,9.343854243E0
1.309247483E1,-6.346801758E-1,-6.423143005E-1,9.232051849E0,9.276107370E0
1.310251183E1,-7.104226685E-1,-6.423143005E-1,9.238338776E0,9.287850740E0
1.311254883E1,-6.509962463E-1,-7.616162109E-1,9.297316132E0,9.351146594E0
1.312258583E1,-6.080355835E-1,-8.575666809E-1,9.473799133E0,9.531946176E0
1.313262283E1,-5.441184998E-1,-9.196875000E-1,9.601333923E0,9.660616085E0
1.314265983E1,-4.073030090E-1,-9.626481628E-1,9.656119995E0,9.712530082E0
1.315269683E1,-2.329156494E-1,-1.020428009E0,9.665400696E0,9.721907921E0
1.316273483E1,-1.480421448E-1,-1.045725403E0,9.591304779E0,9.649279012E0
1.317277183E1,-6.691085815E-2,-1.096769257E0,9.484277344E0,9.547716826E0
1.318280883E1,-3.727249146E-2,-1.160386963E0,9.403595123E0,9.474992791E0
1.319284583E1,7.484436035E-4,-1.208886108E0,9.402098236E0,9.479496686E0
1.320288283E1,-1.104702759E-1,-1.244062958E0,9.455986176E0,9.538111494E0
1.321291983E1,-2.218386841E-1,-1.310973816E0,9.494156799E0,9.586807502E0
1.322295683E1,-2.674937439E-1,-1.455722809E0,9.483379211E0,9.598185405E0
1.323299383E1,-2.618055725E-1,-1.570234680E0,9.440717926E0,9.573992588E0
1.324303083E1,-2.014810181E-1,-1.604663086E0,9.471853180E0,9.608930267E0
1.325306783E1,-1.498384094E-1,-1.632056122E0,9.650880890E0,9.789053105E0
1.326310483E1,-3.442840576E-2,-1.653162231E0,9.864636383E0,1.000225883E1
1.327314183E1,6.975494385E-2,-1.711241455E0,1.004680756E1,1.019173955E1
1.328317883E1,2.061213684E-1,-1.699865112E0,1.025547363E1,1.039744040E1
1.329321583E1,2.824626160E-1,-1.784888306E0,1.055095917E1,1.070459484E1
1.330325283E1,3.314108276E-1,-1.951491852E0,1.073762100E1,1.091854653E1
1.331329083E1,3.550616455E-1,-1.988315277E0,1.083910995E1,1.102568687E1
1.332332783E1,3.188369751E-1,-1.984423370E0,1.083387085E1,1.101872727E1
1.333336483E1,2.652484131E-1,-2.002535706E0,1.078267731E1,1.097026143E1
1.334340183E1,1.815724182E-1,-1.987117767E0,1.057011932E1,1.075681310E1
1.335343883E1,1.776805115E-1,-1.917063446E0,1.018482056E1,1.036519524E1
1.336347583E1,8.502319336E-2,-1.853296051E0,9.784103851E0,9.958444827E0
1.337351283E1,4.266128540E-2,-1.804198151E0,9.438023529E0,9.609018633E0
1.338354983E1,8.831634521E-2,-1.737137604E0,9.243877258E0,9.406099808E0
1.339358683E1,1.137634277E-1,-1.673669586E0,9.227112122E0,9.378363935E0
1.340362383E1,1.101708984E-1,-1.598825226E0,9.379644928E0,9.515572432E0
1.341366083E1,1.844165039E-1,-1.575324097E0,9.438622284E0,9.570958472E0
1.342369783E1,3.110531616E-1,-1.619182892E0,9.595346375E0,9.735973467E0
1.343373483E1,4.403842163E-1,-1.736688538E0,1.001746857E1,1.017642874E1
1.344377183E1,7.990383911E-1,-2.032922516E0,1.073283096E1,1.095284880E1
1.345380896E1,1.284927979E0,-2.455044708E0,1.148860931E1,1.181805519E1
1.346384596E1,1.775906982E0,-2.548899536E0,1.262384857E1,1.300047258E1
1.347388296E1,2.078278198E0,-2.040706329E0,1.340237961E1,1.371522883E1
1.348392096E1,2.420167236E0,-1.367107086E0,1.379740814E1,1.407461057E1
1.349395796E1,2.924468536E0,-1.043480072E0,1.355326584E1,1.390440153E1
1.350399496E1,3.293151855E0,-8.619076538E-1,1.264630188E1,1.309643788E1
1.351403196E1,3.081641693E0,-4.522096252E-1,1.159384048E1,1.200492175E1
1.352406896E1,2.457140350E0,-1.845661926E-1,1.082354233E1,1.110048071E1
1.353410596E1,1.839375000E0,-1.395098877E-1,1.015473312E1,1.032091896E1
1.354414296E1,1.427431641E0,-2.028282166E-1,9.492659912E0,9.601525534E0
1.355417996E1,9.818083191E-1,-2.978805542E-1,8.799301758E0,8.858915951E0
1.356421696E1,5.691165161E-1,-4.462220764E-1,8.197253723E0,8.229093289E0
1.357425396E1,2.341131592E-1,-5.896238708E-1,7.663164368E0,7.689379260E0
1.358429096E1,-6.915618896E-2,-6.553372192E-1,7.284451904E0,7.314197768E0
1.359432796E1,-2.880010986E-1,-6.878196716E-1,7.261399841E0,7.299586851E0
1.360436496E1,-5.173242188E-1,-7.906558228E-1,7.540868683E0,7.599832990E0
1.361440196E1,-6.248007202E-1,-1.052461395E0,7.836054840E0,7.931065905E0
1.362443896E1,-5.954617310E-1,-1.429676971E0,7.983049164E0,8.131889379E0
1.363447596E1,-6.583309937E-1,-1.820663910E0,8.051756287E0,8.281243631E0
1.364451396E1,-4.572990417E-1,-2.188598785E0,8.157735901E0,8.458589840E0
1.365455096E1,-4.864883423E-2,-2.489024048E0,8.254734192E0,8.621962885E0
1.366458796E1,2.634521484E-1,-2.472857666E0,8.585995331E0,8.938889634E0
1.367462496E1,4.655319214E-1,-2.262545013E0,9.112600250E0,9.400814498E0
1.368466196E1,6.391708374E-1,-2.082768860E0,9.637109528E0,9.880300883E0
1.369469896E1,8.414002991E-1,-1.915865936E0,1.010473709E1,1.031911859E1
1.370473596E1,8.924441528E-1,-1.678459625E0,1.053060150E1,1.070080610E1
1.371477296E1,8.589138794E-1,-1.475032654E0,1.091814560E1,1.105076277E1
1.372480996E1,8.310717773E-1,-1.264270935E0,1.123234222E1,1.133378018E1
1.373484696E1,8.479866028E-1,-1.115630035E0,1.140433456E1,1.149010698E1
1.374488396E1,8.547225952E-1,-1.116977234E0,1.140717865E1,1.149355966E1
1.375492096E1,8.635542297E-1,-1.186283112E0,1.117680771E1,1.127271148E1
1.376495796E1,8.228388977E-1,-1.206491089E0,1.078058167E1,1.087904525E1
1.377499496E1,6.731501770E-1,-1.107995911E0,1.034378998E1,1.042471953E1
1.378503196E1,4.999603271E-1,-1.051263885E0,9.825268250E0,9.893988693E0
1.379506896E1,4.592449951E-1,-1.053958282E0,9.259295197E0,9.330395574E0
1.380510696E1,4.555027771E-1,-9.865983582E-1,8.803343353E0,8.870158583E0
1.381514396E1,3.171903992E-1,-8.693920898E-1,8.508905640E0,8.559084504E0
1.382518096E1,1.718426514E-1,-7.756869507E-1,8.354277191E0,8.391970420E0
1.383521796E1,1.558259583E-1,-7.265890503E-1,8.269703064E0,8.303023675E0
1.384525496E1,2.004331970E-1,-7.309300232E-1,8.225694580E0,8.260537724E0
1.385529196E1,2.830613708E-1,-7.656578064E-1,8.248447266E0,8.288741636E0
1.386532896E1,4.245172119E-1,-8.440946960E-1,8.353977814E0,8.407238312E0
1.387536596E1,7.015910339E-1,-9.015751648E-1,8.568182373E0,8.644004682E0
1.388540296E1,1.017583923E0,-8.939410400E-1,8.865164795E0,8.968040726E0
1.389543996E1,1.256337433E0,-8.818162537E-1,9.065597992E0,9.194620743E0
1.390547696E1,1.644330597E0,-8.972341919E-1,9.273066559E0,9.460370802E0
1.391551396E1,1.991009674E0,-9.412426758E-1,9.495204620E0,9.747254387E0
1.392555096E1,2.183509369E0,-9.800120544E-1,9.646539917E0,9.939007454E0
1.393558796E1,2.314936066E0,-9.321116638E-1,9.726773071E0,1.004180639E1
1.394562496E1,2.349065094E0,-8.364605713E-1,9.739197235E0,1.005334451E1
1.395566196E1,2.291734314E0,-6.912625122E-1,9.802365875E0,1.009040469E1
1.396569996E1,2.171983337E0,-5.001100159E-1,9.852810974E0,1.010175756E1
1.397573696E1,1.977088623E0,-3.336561584E-1,9.974208527E0,1.017374275E1
1.398577396E1,1.723815308E0,-2.553689575E-1,1.004456223E1,1.019460557E1
1.399581096E1,1.551822968E0,-2.323168945E-1,9.967921600E0,1.009066830E1
1.400584796E1,1.339414673E0,-2.368075562E-1,9.860445099E0,9.953817711E0
1.401588496E1,1.175505524E0,-2.812651062E-1,9.767039337E0,9.841543614E0
1.402592196E1,1.093176727E0,-3.373983765E-1,9.730066223E0,9.797094555E0
1.403595896E1,1.046773224E0,-4.225712585E-1,9.605974274E0,9.672075392E0
1.404599596E1,1.086590424E0,-5.189707947E-1,9.466165009E0,9.542446720E0
1.405603296E1,1.246757355E0,-6.367758179E-1,9.373657379E0,9.477623120E0
1.406606996E1,1.397942963E0,-6.659651184E-1,9.266031189E0,9.394524366E0
1.407610696E1,1.547631683E0,-6.509962463E-1,9.226962433E0,9.378475125E0
1.408614396E1,1.732646942E0,-6.442602539E-1,9.332642670E0,9.513955849E0
1.409618096E1,1.883533173E0,-6.191125488E-1,9.373208313E0,9.580607060E0
1.410621796E1,2.028880920E0,-5.783972168E-1,9.335486755E0,9.570904560E0
1.411625496E1,2.025438080E0,-5.442681885E-1,9.261241150E0,9.495747201E0
1.412629296E1,1.920356598E0,-4.734654236E-1,9.238039398E0,9.447397043E0
1.413632996E1,1.803599396E0,-4.317022705E-1,9.193731537E0,9.378914500E0
1.414636696E1,1.668430481E0,-4.156855774E-1,9.158404999E0,9.318413861E0
1.415640396E1,1.434467010E0,-3.688330078E-1,9.132808228E0,9.252130539E0
1.416644096E1,1.285676422E0,-3.218307495E-1,9.104067993E0,9.200032224E0
1.417647796E1,1.125210114E0,-2.862048340E-1,9.058862000E0,9.132961827E0
1.418651496E1,9.319619751E-1,-2.543211365E-1,9.122928772E0,9.173933820E0
1.419655196E1,8.258326721E-1,-1.317260742E-1,9.354048157E0,9.391356041E0
1.420658896E1,8.316705322E-1,-5.194198608E-2,9.442214813E0,9.478913146E0
1.421662596E1,8.695417786E-1,-2.859054565E-2,9.394164734E0,9.434365446E0
1.422666296E1,6.652166748E-1,9.580078125E-3,9.447902985E0,9.471297472E0
1.423669996E1,6.436614990E-1,1.161584473E-1,9.392817535E0,9.415562339E0
1.424673696E1,8.562194824E-1,2.911445618E-1,9.248816986E0,9.292927020E0
1.425677396E1,9.303153992E-1,3.749702454E-1,9.181157684E0,9.235786152E0
1.426681096E1,8.827143860E-1,3.556604004E-1,9.291777649E0,9.340386014E0
1.427684796E1,8.110134888E-1,2.881507874E-1,9.406588898E0,9.445882089E0
1.428688496E1,8.029302979E-1,2.787203979E-1,9.347761230E0,9.386321012E0
1.429692296E1,8.184979248E-1,2.598596191E-1,9.224567413E0,9.264454104E0
1.430695996E1,8.095166016E-1,1.815724182E-1,9.079069977E0,9.116896254E0
1.431699696E1,7.482939148E-1,1.710942078E-1,9.026828613E0,9.059406814E0
1.432703396E1,7.294331360E-1,2.097138977E-1,9.033414917E0,9.065243388E0
1.433707096E1,6.923103333E-1,2.710862732E-1,9.092541962E0,9.122888835E0
1.434710796E1,6.598278809E-1,3.779640198E-1,9.236991577E0,9.268238399E0
1.435714496E1,6.774911499E-1,5.165757751E-1,9.271569672E0,9.310630965E0
1.436718196E1,6.500981140E-1,6.801855469E-1,9.368567963E0,9.415696767E0
1.437721896E1,4.474195862E-1,7.819738770E-1,9.327253876E0,9.370663386E0
1.438725596E1,1.505868530E-1,8.625064087E-1,9.457183685E0,9.497626912E0
1.439729296E1,-3.582051086E-1,7.927514648E-1,9.732610931E0,9.771411430E0
1.440732996E1,-1.089584198E0,4.314028931E-1,1.026909531E1,1.033574480E1
1.441736696E1,-1.733844452E0,1.299298096E-1,1.067774551E1,1.081838008E1
1.442740396E1,-1.906435547E0,2.257305908E-1,1.059406952E1,1.076660391E1
1.443744096E1,-1.601369934E0,6.676116943E-1,1.029783554E1,1.044296452E1
1.444747796E1,-6.879693604E-1,1.087338867E0,9.955946503E0,1.003874885E1
1.445751496E1,5.782475281E-1,1.351240082E0,9.877060547E0,9.985817193E0
1.446755296E1,1.624871063E0,1.505868530E0,1.033630554E1,1.057104812E1
1.447758996E1,2.289938049E0,1.638043671E0,1.104538101E1,1.139857206E1
1.448762696E1,2.299967194E0,1.734443207E0,1.148890869E1,1.184454158E1
1.449766396E1,1.826052704E0,1.626367950E0,1.187675217E1,1.212587247E1
1.450770096E1,1.033600616E0,1.464255066E0,1.188738007E1,1.202173773E1
1.451773796E1,2.239343262E-1,1.147513733E0,1.163111298E1,1.168972726E1
1.452777496E1,-3.552113342E-1,7.587721252E-1,1.124177261E1,1.127294823E1
1.453781196E1,-7.018904114E-1,4.355941772E-1,1.057954971E1,1.061175125E1
1.454784896E1,-7.213499451E-1,1.320254517E-1,9.842482452E0,9.869763791E0
1.455788596E1,-4.022135925E-1,-1.028361511E-1,9.316326599E0,9.325571958E0
1.456792296E1,9.430389404E-3,-1.959425354E-1,9.129664764E0,9.131772069E0
1.457795996E1,3.797602844E-1,-1.758842468E-1,9.322912903E0,9.332301867E0
1.458799696E1,6.846762085E-1,-6.526428223E-2,9.708211670E0,9.732544105E0
1.459803396E1,8.749305725E-1,1.969903564E-1,1.017284546E1,1.021230108E1
1.460807096E1,9.749226379E-1,5.593867493E-1,1.046892975E1,1.052909672E1
1.461810796E1,9.081614685E-1,8.128097534E-1,1.070214478E1,1.077131931E1
1.462814496E1,6.707551575E-1,9.669891357E-1,1.094793365E1,1.101100503E1
1.463818196E1,2.550695801E-1,1.266067200E0,1.106094864E1,1.113609319E1
1.464821996E1,-3.601510620E-1,1.592538300E0,1.103699844E1,1.115711529E1
1.465825696E1,-9.906399536E-1,1.805245972E0,1.078582077E1,1.098062886E1
1.466829396E1,-1.050365753E0,1.665436707E0,1.005339386E1,1.024439729E1
1.467833096E1,-5.164260864E-1,1.325792999E0,9.306147766E0,9.414287505E0
1.468836796E1,-2.273771667E-1,1.235381012E0,8.583151245E0,8.674580792E0
1.469840496E1,-4.314028931E-1,1.176403656E0,7.907456360E0,8.006116418E0
1.470844196E1,-1.005758514E0,1.157093811E0,7.677983551E0,7.829549648E0
1.471847896E1,-1.543590088E0,1.098715210E0,7.564070435E0,7.797756537E0
1.472851596E1,-1.686842194E0,1.048868866E0,7.631280670E0,7.885556870E0
1.473855296E1,-1.573827209E0,1.020278320E0,7.899672546E0,8.119281143E0
1.474858996E1,-1.372346191E0,1.005908203E0,8.098309479E0,8.275131527E0
1.475862696E1,-1.280886383E0,9.836045837E-1,8.332871704E0,8.487926646E0
1.476866396E1,-1.162183228E0,9.398954773E-1,8.542735291E0,8.672508265E0
1.477870096E1,-1.186881866E0,1.028361511E0,8.780740356E0,8.920068227E0
1.478873796E1,-1.214873657E0,1.184486847E0,8.970695343E0,9.129748191E0
1.479877496E1,-1.216370544E0,1.333127747E0,9.181007996E0,9.356692509E0
1.480881196E1,-1.137634277E0,1.414408722E0,9.494605865E0,9.666555970E0
1.481884996E1,-9.484277344E-1,1.412163391E0,9.831106110E0,9.977192388E0
1.482888696E1,-6.737489319E-1,1.349443817E0,1.025996429E1,1.037023643E1
1.483892396E1,-3.854484558E-1,1.229543152E0,1.056817337E1,1.064643768E1
1.484896096E1,-1.691482544E-1,1.175655212E0,1.076022400E1,1.082558067E1
1.485899796E1,-1.615141296E-1,1.128652954E0,1.092069031E1,1.098004650E1
1.486903496E1,-2.727328491E-1,1.173409882E0,1.094074860E1,1.100687303E1
1.487907196E1,-4.635859680E-1,1.272054749E0,1.087982529E1,1.096374177E1
1.488910896E1,-6.750961304E-1,1.268911285E0,1.077055252E1,1.086603388E1
1.489914596E1,-7.300318909E-1,1.226250000E0,1.061577438E1,1.071126983E1
1.490918296E1,-7.476951599E-1,1.218915253E0,1.047761169E1,1.057474110E1
1.491921996E1,-7.646099854E-1,1.177601166E0,1.032702484E1,1.042203507E1
1.492925696E1,-7.782316589E-1,1.117725677E0,1.023616379E1,1.032637421E1
1.493929396E1,-7.331753540E-1,1.129850464E0,1.038151154E1,1.046851899E1
1.494933096E1,-6.803352356E-1,1.293460236E0,1.048240173E1,1.058379145E1
1.495936796E1,-6.638694763E-1,1.319057007E0,1.046114594E1,1.056485723E1
1.496940496E1,-6.578819275E-1,1.221010895E0,1.038480469E1,1.047701506E1
1.497944196E1,-7.138655090E-1,1.171164551E0,1.022733215E1,1.031889303E1
1.498947996E1,-7.749385071E-1,1.148112488E0,9.973909149E0,1.006963533E1
1.499951696E1,-8.325686646E-1,1.081650696E0,9.705217896E0,9.800734320E0
1.500955396E1,-7.897576904E-1,1.002315674E0,9.464518433E0,9.550155134E0
1.501959096E1,-6.045927429E-1,9.848020935E-1,9.177415466E0,9.249882280E0
1.502962796E1,-4.019142151E-1,9.180409241E-1,9.063352661E0,9.118590661E0
1.503966496E1,-2.520758057E-1,8.541238403E-1,8.999285889E0,9.043241468E0
1.504970196E1,-1.118174744E-1,8.623567200E-1,8.958570557E0,9.000674901E0
1.505973896E1,7.993377686E-2,8.650511169E-1,8.999435577E0,9.041268913E0
1.506977596E1,2.180964661E-1,8.391549683E-1,9.118737488E0,9.159864655E0
1.507981296E1,2.240840149E-1,7.515870667E-1,9.230854340E0,9.264111863E0
1.508984996E1,2.092648315E-1,6.734495544E-1,9.305249634E0,9.331934249E0
1.509988696E1,1.463955688E-1,6.156697083E-1,9.303453369E0,9.324951766E0
1.510992396E1,4.760101318E-2,5.773493958E-1,9.353599091E0,9.371521441E0
1.511996096E1,-1.187031555E-1,6.231541443E-1,9.491911469E0,9.513085454E0
1.512999796E1,-2.173480225E-1,7.304809570E-1,9.737850037E0,9.767628470E0
1.514003496E1,-1.998344421E-1,8.628057861E-1,9.896520081E0,9.936069511E0
1.515007196E1,-2.796185303E-1,8.529263306E-1,9.952952728E0,9.993344678E0
1.516010996E1,-3.465293884E-1,8.047265625E-1,1.000639160E1,1.004467721E1
1.517014696E1,-3.757186890E-1,9.093589783E-1,1.003019211E1,1.007833578E1
1.518018396E1,-4.159849548E-1,1.021924896E0,1.002180954E1,1.008236284E1
1.519022096E1,-3.363505554E-1,1.001118164E0,1.009141479E1,1.014652758E1
1.520025796E1,-2.592608643E-1,1.003213806E0,1.024125320E1,1.029353784E1
1.521029496E1,-2.118095398E-1,1.012644196E0,1.036100418E1,1.041252703E1
1.522033196E1,-1.556762695E-1,1.050365753E0,1.041159897E1,1.046560540E1
1.523036896E1,-1.904040527E-1,1.006806335E0,1.037028488E1,1.042078314E1
1.524040596E1,-2.492317200E-1,8.563691711E-1,1.030472122E1,1.034324727E1
1.525044296E1,-3.436853027E-1,6.741979980E-1,1.011910721E1,1.014736386E1
1.526047996E1,-4.556524658E-1,4.558021545E-1,9.807155914E0,9.828310226E0
1.527051696E1,-5.487588501E-1,2.435435486E-1,9.563911743E0,9.582737478E0
1.528055396E1,-6.764433289E-1,1.441502380E-1,9.429491272E0,9.454822077E0
1.529059096E1,-6.490502930E-1,9.744735718E-2,9.393565979E0,9.416466645E0
1.530062796E1,-5.737568665E-1,-1.140628052E-1,9.479038239E0,9.497071822E0
1.531066496E1,-6.225553894E-1,-5.095404053E-1,9.817933502E0,9.850838791E0
1.532070196E1,-8.640032959E-1,-1.074315948E0,1.040830582E1,1.049921361E1
1.533073896E1,-1.404529266E0,-1.533560944E0,1.107951004E1,1.127297895E1
1.534077696E1,-2.227368164E0,-1.900747375E0,1.175685150E1,1.211600457E1
1.535081396E1,-3.278033295E0,-2.185605011E0,1.241742783E1,1.302746657E1
1.536085096E1,-4.415817261E0,-2.362088013E0,1.265857635E1,1.361317219E1
1.537088796E1,-5.528154144E0,-2.537972260E0,1.275437714E1,1.413067329E1
1.538092496E1,-6.364614716E0,-2.159110107E0,1.284688477E1,1.449870770E1
1.539096196E1,-6.174360352E0,-1.175505524E0,1.328038330E1,1.469262126E1
1.540099896E1,-4.151766357E0,-3.769161987E-1,1.303354660E1,1.368402597E1
1.541103596E1,-1.605261841E0,-4.540058899E-1,1.212284042E1,1.223708490E1
1.542107296E1,6.936575317E-1,-1.049317932E0,1.165057251E1,1.171827926E1
1.543110996E1,2.352507935E0,-1.470092926E0,1.116228790E1,1.150183194E1
1.544114696E1,3.109932861E0,-1.464554443E0,1.082144669E1,1.135430801E1
1.545118383E1,2.947071533E0,-1.290167084E0,1.061083466E1,1.108781195E1
1.546122083E1,2.377206573E0,-9.487271118E-1,1.007929001E1,1.039919619E1
1.547125783E1,1.746867371E0,-5.462141418E-1,9.042545929E0,9.225916343E0
1.548129483E1,1.033750305E0,-2.538720703E-1,7.880362701E0,7.951931025E0
1.549133183E1,6.008505249E-1,1.145118713E-1,7.316934357E0,7.342456176E0
1.550136883E1,7.192543030E-1,3.579057312E-1,7.225624237E0,7.270149165E0
1.551140583E1,1.077459412E0,5.137316895E-1,7.016808472E0,7.117614780E0
1.552144383E1,1.636397095E0,1.163380737E0,6.979535980E0,7.262587190E0
1.553148083E1,2.797831879E0,2.553539886E0,7.428452454E0,8.338485176E0
1.554151783E1,4.352199554E0,4.123175812E0,9.034313049E0,1.084255653E1
1.555155483E1,5.559289398E0,5.598956909E0,1.206491089E1,1.441582782E1
1.556159183E1,7.151528320E0,6.924001465E0,1.562825089E1,1.852912247E1
1.557162883E1,9.779313812E0,7.592361603E0,1.862651596E1,2.236573339E1
1.558166583E1,1.195848221E1,7.902217255E0,2.130145340E1,2.567493430E1
1.559170283E1,1.257834320E1,8.549620972E0,2.468711288E1,2.899593556E1
1.560173983E1,1.306752594E1,9.492659912E0,2.811049393E1,3.242022047E1
1.561177683E1,1.359188553E1,9.606872406E0,3.089979355E1,3.509741573E1
1.562181383E1,1.348276245E1,8.960516510E0,3.348895935E1,3.719658772E1
1.563185083E1,1.298579590E1,8.471633148E0,3.621404251E1,3.939360784E1
1.564188783E1,1.221564743E1,8.535999298E0,3.908013245E1,4.182513692E1
1.565192483E1,9.712852020E0,8.201594696E0,4.238780411E1,4.425304043E1
1.566196183E1,4.471351776E0,8.142168274E0,4.664330475E1,4.755928688E1
1.567199883E1,-1.710942078E0,9.463470612E0,5.175337830E1,5.263930816E1
1.568203583E1,-7.137158203E0,8.515192566E0,5.679444534E1,5.787103380E1
1.569207283E1,-1.058314224E1,5.810167694E0,5.930083328E1,6.051735104E1
1.570210983E1,-1.276470566E1,3.176993408E0,5.797444153E1,5.944801820E1
1.571214783E1,-1.520538025E1,5.361849976E-1,5.431964172E1,5.641023453E1
1.572218483E1,-1.900043839E1,-2.524051208E0,4.884612396E1,5.247219568E1
1.573222183E1,-2.248324585E1,-5.090015259E0,4.238286438E1,4.824636559E1
1.574225883E1,-2.450733673E1,-6.825655975E0,3.592903519E1,4.402379700E1
1.575229583E1,-2.672302917E1,-6.522985382E0,3.211646347E1,4.228636722E1
1.576233283E1,-2.985152344E1,-5.925278320E0,3.241913406E1,4.446597158E1
1.577236983E1,-3.178370544E1,-6.872059479E0,2.695130447E1,4.223507957E1
1.578240683E1,-2.816318436E1,-6.646328888E0,2.138572815E1,3.598177329E1
1.579244383E1,-2.151116730E1,-6.073320465E0,1.725566666E1,2.823780395E1
1.580248083E1,-1.898891235E1,-5.145849152E0,1.412822021E1,2.422117178E1
1.581251783E1,-1.880659149E1,-5.100044403E0,1.160686340E1,2.268077632E1
1.582255483E1,-1.846455276E1,-4.563859406E0,8.765621796E0,2.094289013E1
1.583259183E1,-1.708172836E1,-4.564158783E0,3.836521912E0,1.809242631E1
1.584262883E1,-1.453537354E1,-4.628524933E0,-1.283281403E0,1.530840090E1
1.585266583E1,-1.083581680E1,-4.800517273E0,-5.219196625E0,1.294989982E1
1.586270283E1,-7.694299622E0,-4.811893616E0,-7.575297089E0,1.182123906E1
1.587273983E1,-6.162235565E0,-4.711751862E0,-9.217382355E0,1.204715279E1
1.588277783E1,-5.297483826E0,-4.569697266E0,-1.075633209E1,1.283137358E1
1.589281483E1,-4.477788391E0,-4.450844421E0,-1.196342194E1,1.352716043E1
1.590285183E1,-3.876039734E0,-4.364324341E0,-1.217837494E1,1.350495565E1
1.591288883E1,-3.110531616E0,-4.145030365E0,-1.224408829E1,1.329565274E1
1.592292583E1,-2.618654480E0,-3.842060394E0,-1.232896179E1,1.317657308E1
1.593296283E1,-2.120041351E0,-3.662134552E0,-1.262115417E1,1.331162415E1
1.594299983E1,-1.858684845E0,-3.168910217E0,-1.321556808E1,1.371670300E1
1.595303683E1,-2.112556915E0,-2.502795410E0,-1.358559860E1,1.397481202E1
1.596307383E1,-2.360441437E0,-1.925895081E0,-1.318997131E1,1.353721164E1
1.597311083E1,-2.553539886E0,-1.341061249E0,-1.203766754E1,1.237838645E1
1.598314783E1,-2.853366394E0,-6.370751953E-1,-1.035965698E1,1.076429549E1
1.599318483E1,-3.508254547E0,4.409829712E-1,-8.547525330E0,9.250000282E0
1.600322183E1,-4.202061768E0,1.457219696E0,-6.442003784E0,7.828168694E0
1.601325883E1,-3.753145294E0,2.161804504E0,-4.454886017E0,6.213333062E0
1.602329583E1,-2.477647705E0,2.575095062E0,-3.112327881E0,4.738822382E0
1.603333283E1,-2.528092804E0,2.214944000E0,-2.585872650E0,4.240750819E0
1.604336983E1,-4.171525269E0,9.868977356E-1,-2.847827911E0,5.146427306E0
1.605340683E1,-6.568341064E0,-8.155041504E-1,-3.683240662E0,7.574589964E0
1.606344383E1,-8.976084137E0,-2.796784058E0,-5.335654449E0,1.081024033E1
1.607348083E1,-1.158111694E1,-4.053570557E0,-7.673792267E0,1.447206936E1
1.608351883E1,-1.391371628E1,-4.513114929E0,-9.528136139E0,1.745694948E1
1.609355583E1,-1.592568237E1,-4.524191895E0,-1.011805939E1,1.940285539E1
1.610359283E1,-1.757270737E1,-3.958817596E0,-9.663005676E0,2.044128077E1
1.611362983E1,-1.820125031E1,-3.903582458E0,-9.407936096E0,2.085743825E1
1.612366683E1,-1.846739685E1,-4.276307373E0,-1.041908340E1,2.163073855E1
1.613370383E1,-1.979318985E1,-4.699926453E0,-1.301498520E1,2.415055927E1
1.614374083E1,-2.257275970E1,-5.282814331E0,-1.630214951E1,2.834074252E1
1.615377783E1,-2.602054001E1,-6.042334900E0,-1.899489990E1,3.277780553E1
1.616381483E1,-2.913152069E1,-6.490951996E0,-2.002490799E1,3.594127009E1
1.617385183E1,-3.001139099E1,-6.155050507E0,-1.953647369E1,3.633513507E1
1.618388883E1,-2.919453964E1,-5.644911346E0,-1.868130203E1,3.511662305E1
1.619392583E1,-2.820060654E1,-5.170398102E0,-1.787807236E1,3.378805553E1
1.620396283E1,-2.613789597E1,-4.520599365E0,-1.661574738E1,3.130029529E1
1.621399983E1,-2.382281021E1,-4.229005737E0,-1.436936874E1,2.814053187E1
1.622403683E1,-2.152898026E1,-4.343517609E0,-1.227881607E1,2.516212352E1
1.623407383E1,-1.911255524E1,-4.432133331E0,-1.047701294E1,2.224188332E1
1.624411083E1,-1.732078125E1,-5.159770203E0,-8.749006348E0,2.007928793E1
1.625414783E1,-1.674522812E1,-6.308032379E0,-6.995253296E0,1.921269127E1
1.626418483E1,-1.780203049E1,-7.642956390E0,-4.550986176E0,1.990071725E1
1.627422283E1,-2.173450287E1,-1.053389465E1,9.693841553E-1,2.417211735E1
1.628425983E1,-2.519859924E1,-1.626876892E1,9.431586914E0,3.144196364E1
1.629429683E1,-2.693349152E1,-2.118409744E1,2.021950333E1,3.978702382E1
1.630433383E1,-2.881762344E1,-2.443608490E1,3.276611252E1,5.001195653E1
1.631437083E1,-2.923465622E1,-2.901521255E1,4.497113205E1,6.098319770E1
1.632440783E1,-2.640254562E1,-3.161710190E1,5.254328568E1,6.676475430E1
1.633444483E1,-2.389466080E1,-3.048246140E1,5.507586914E1,6.733117130E1
1.634448183E1,-2.362132919E1,-3.023772034E1,5.852170349E1,6.997911620E1
1.635451883E1,-2.632261185E1,-3.264561310E1,6.279636429E1,7.551158399E1
1.636455583E1,-3.081237534E1,-2.966740631E1,6.495352844E1,7.777222080E1
1.637459283E1,-3.140813644E1,-2.123648849E1,6.514572876E1,7.537523104E1
1.638462983E1,-2.583342911E1,-1.322694443E1,6.385271759E1,7.013905946E1
1.639466683E1,-1.954785004E1,-7.872279510E0,6.124528976E1,6.476941210E1
1.640470383E1,-1.508278519E1,-3.380420380E0,5.514981537E1,5.727494903E1
1.641474083E1,-1.099418747E1,8.852590942E-1,4.718742325E1,4.845935157E1
1.642477783E1,-5.977070618E0,4.151017914E0,4.108880539E1,4.172824285E1
1.643481483E1,-7.283853149E-1,5.831423492E0,3.777230209E1,3.822672953E1
1.644485283E1,2.786455536E0,6.110293579E0,3.599235352E1,3.661351572E1
1.645489021E1,5.096002808E0,6.581962738E0,3.349509659E1,3.451395332E1
1.646492721E1,5.769452362E0,7.229665833E0,3.027499283E1,3.165643441E1
1.647496421E1,4.922513580E0,7.074139252E0,2.664234695E1,2.800159348E1
1.648500121E1,3.230132904E0,5.648204498E0,2.317884933E1,2.407477994E1
1.649503821E1,6.456074524E-1,3.398383026E0,2.039838135E1,2.068960555E1
1.650507521E1,-1.889520721E0,1.757345581E0,1.770323593E1,1.789030784E1
1.651511221E1,-3.624562683E0,1.361568604E0,1.485121674E1,1.534763702E1
1.652514921E1,-4.654271393E0,1.531614990E0,1.288969574E1,1.378957370E1
1.653518621E1,-5.610782318E0,1.667382660E0,1.218526062E1,1.351819587E1
1.654522321E1,-6.204148407E0,1.823058929E0,1.222403000E1,1.382902421E1
1.655526021E1,-5.942193146E0,1.943258972E0,1.206416245E1,1.358785967E1
1.656529721E1,-5.381758575E0,2.080373840E0,1.203976318E1,1.335092425E1
