Time (s),Acceleration x (m/s^2),Acceleration y (m/s^2),Acceleration z (m/s^2),Absolute acceleration (m/s^2),label,window
5.001084542,6.035898285,-1.87095932,6.365662537,8.96962744,1.0,0.0
5.011062542,6.31027771,-1.700763245,6.542594604,9.24758047,1.0,0.0
5.021040542,6.545887756,-1.733545074,6.630162506,9.476965754,1.0,0.0
5.031018542,6.326444092,-1.953288116,6.895410919,9.559598373,1.0,0.0
5.040996542,5.314847717,-2.36942276,7.18550766,9.246258206,1.0,0.0
5.050974542,5.876330109,-2.379751282,7.422165527,9.7613018,1.0,0.0
5.060952542,5.778882751,-3.040477295,7.833210754,10.19799876,1.0,0.0
5.070930542,5.987548828,-3.300636292,7.551346893,10.18664718,1.0,0.0
5.080908542,6.618187408,-3.345393219,8.098758545,10.9809813,1.0,0.0
5.090886542,7.256011047,-3.919449463,8.792416077,12.05480655,1.0,0.0
5.100864542,8.311615906,-4.335584106,8.980275421,12.98174084,1.0,0.0
5.110841542,9.35255127,-5.004243622,9.68710556,14.36498116,1.0,0.0
5.120819542,10.37791901,-5.879473572,10.28451324,15.74930554,1.0,0.0
5.130797542,11.08894043,-6.629414062,10.94943054,16.93528151,1.0,0.0
5.140775542,11.70086792,-6.954687653,11.64204025,17.91131184,1.0,0.0
5.150753542,12.2134021,-7.165299683,12.06416245,18.60249246,1.0,0.0
5.160731542,12.21250397,-7.094796295,12.22762253,18.68143839,1.0,0.0
5.170709542,11.71344177,-6.504873047,12.00129318,17.98747146,1.0,0.0
5.180687542,10.75079361,-5.778134308,11.511362,16.77730176,1.0,0.0
5.190665542,9.428443451,-5.032085724,10.75513458,15.16213549,1.0,0.0
5.200643542,7.980803833,-4.266427917,10.01537292,13.49827144,1.0,0.0
5.210621542,6.59348877,-3.34180069,9.249715118,11.840564,1.0,0.0
5.220599542,5.415887604,-2.689157867,8.555907898,10.47697325,1.0,0.0
5.230577542,4.560566254,-2.137405243,7.905360718,9.373472879,1.0,0.0
5.240555542,3.939358063,-1.692530365,7.254663849,8.426941826,1.0,0.0
5.250532542,3.524121552,-1.158590698,6.615493011,7.584623451,1.0,0.0
5.260510542,3.366499329,-1.051263885,6.05865097,7.010401206,1.0,0.0
5.270488542,3.492537231,-1.246607666,5.599855042,6.71641448,1.0,0.0
5.280466542,3.361110535,-0.6387217712,5.037474518,6.089431751,1.0,0.0
5.290444542,3.444487152,-0.730480957,4.705464935,5.877031089,1.0,0.0
5.300422542,3.684887238,-0.8343649292,4.278253326,5.707714982,1.0,0.0
5.310400542,3.848796387,-0.7839198303,3.861819305,5.508303938,1.0,0.0
5.320378542,4.046086121,-0.7587721252,3.524420929,5.419233425,1.0,0.0
5.330356542,4.230951691,-0.8898994446,3.362757111,5.477317648,1.0,0.0
5.340334542,4.480931854,-1.083596649,3.348237305,5.697685936,1.0,0.0
5.350312542,4.725822601,-1.330283661,3.545527039,6.055891005,1.0,0.0
5.360290542,5.003944244,-1.607806549,3.78293335,6.475730432,1.0,0.0
5.370268542,5.288203125,-1.88263504,4.048032074,6.920691487,1.0,0.0
5.380246542,5.520669708,-2.180814972,4.337679749,7.351817025,1.0,0.0
5.390223542,5.731730804,-2.518662415,4.656516724,7.802534612,1.0,0.0
5.400201542,5.890400848,-2.773731995,5.072651367,8.253617584,1.0,0.0
5.410179542,5.997278595,-2.993325348,5.484744415,8.660818003,1.0,0.0
5.420157542,6.05056778,-3.374881897,5.955515442,9.13604742,1.0,0.0
5.430135542,5.905220032,-3.497476959,6.418053589,9.396562168,1.0,0.0
5.440113542,5.545817413,-3.268902283,6.815477142,9.375102218,1.0,0.0
5.450091542,5.12728775,-3.107388153,7.2685849,9.422168925,1.0,0.0
5.460069542,4.795577545,-2.949017487,7.420518951,9.3144173,1.0,0.0
5.470047542,4.467908936,-2.819836121,7.418722687,9.107751221,1.0,0.0
5.480025542,4.256398773,-2.717898102,7.355554047,8.92233579,1.0,0.0
5.490003542,4.186344452,-2.782863007,7.242688751,8.816254688,1.0,0.0
5.499981542,4.251309357,-2.950514374,7.218139801,8.881481211,1.0,0.0
5.509959542,4.292174377,-2.970572662,7.246580658,8.930845092,1.0,0.0
5.519937542,4.512067108,-3.178639984,6.972650299,8.89271353,1.0,0.0
5.529914542,4.870571594,-3.483406219,6.726412354,9.005621005,1.0,0.0
5.539892542,5.43968811,-3.786076813,6.590494995,9.346614823,1.0,0.0
5.549870542,6.349047089,-4.295317841,6.738237762,10.20607674,1.0,0.0
5.559848542,7.804320831,-5.132377167,7.154522095,11.76587886,1.0,0.0
5.569826542,9.609117737,-5.70299057,7.827971649,13.64318091,1.0,0.0
5.579804542,11.43232635,-5.978118439,8.349337463,15.36708893,1.0,0.0
5.589782542,12.8079657,-6.433022461,8.863518219,16.8519945,1.0,0.0
5.599760542,13.45536942,-7.32352066,9.863738251,18.22016063,1.0,0.0
5.609738542,13.20928116,-7.448061676,10.79255676,18.61284537,1.0,0.0
5.619716542,12.33330276,-6.998396759,11.29072083,18.1264528,1.0,0.0
5.629694542,11.18548965,-6.437363434,11.22889938,17.10681175,1.0,0.0
5.639672542,9.936786346,-5.842350769,10.78327606,15.78454396,1.0,0.0
5.649650542,8.618926849,-5.156477051,10.169702,14.29328494,1.0,0.0
5.659627542,7.281757507,-4.428391113,9.469308472,12.73979761,1.0,0.0
5.669608208,6.052364044,-3.889811096,8.861871643,11.41466206,1.0,0.0
5.679586208,5.042863312,-3.562292175,8.34739151,10.38264614,1.0,0.0
5.689564208,4.109254761,-2.982248383,7.88051239,9.374553623,1.0,0.0
5.699542208,3.325783997,-2.469863892,7.371121674,8.455442127,1.0,0.0
5.709520208,3.137774963,-2.251318359,6.987469482,7.983658049,1.0,0.0
5.719498208,2.77073822,-1.650467834,6.527026978,7.280323861,1.0,0.0
5.729476208,2.93809021,-1.67322052,6.120921478,6.992690522,1.0,0.0
5.739454208,2.982098694,-1.589544525,5.760920105,6.678904467,1.0,0.0
5.749432208,3.016078033,-1.395997009,5.473817139,6.403765175,1.0,0.0
5.759410208,3.230132904,-1.526675262,5.238955536,6.341226304,1.0,0.0
5.769388208,3.43415863,-1.700763245,4.968468018,6.274688483,1.0,0.0
5.779366208,3.499123535,-1.723815308,4.873565369,6.24235886,1.0,0.0
5.789344208,3.611240387,-1.795366516,4.736899567,6.221142625,1.0,0.0
5.799321208,3.745211792,-1.8592836,4.523742828,6.160178248,1.0,0.0
5.809299208,3.829935608,-1.868264923,4.495900726,6.194509175,1.0,0.0
5.819277208,3.971840515,-1.916165314,4.43348053,6.253235658,1.0,0.0
5.829255208,4.216282196,-2.086062012,4.50248703,6.511611147,1.0,0.0
5.839233208,4.493505707,-2.342029724,4.848267975,7.013016407,1.0,0.0
5.849211208,4.739144897,-2.227966919,4.773273926,7.085723317,1.0,0.0
5.859189208,4.923561401,-2.730921021,5.342839508,7.761785909,1.0,0.0
5.869167208,5.126239929,-2.750530243,5.563330994,8.049497138,1.0,0.0
5.879145208,5.195994873,-2.896626434,5.869594116,8.357089356,1.0,0.0
5.889123208,5.157524872,-2.992127838,6.213578796,8.611704434,1.0,0.0
5.899101208,5.077740784,-2.974464569,6.553072815,8.807590718,1.0,0.0
5.909079208,4.863985291,-2.876717834,6.721173248,8.78111771,1.0,0.0
5.919057208,4.663103027,-2.791544952,6.903045044,8.785743221,1.0,0.0
5.929035208,4.498146057,-2.759361877,7.050189056,8.806393226,1.0,0.0
5.939012208,4.395459595,-2.788551178,7.116650848,8.817187875,1.0,0.0
5.948990208,4.360133057,-2.921624451,7.233707428,8.937179245,1.0,0.0
5.958968208,4.50488205,-3.184777222,7.263495483,9.121136709,1.0,0.0
5.968946208,4.737498322,-3.593427429,7.354356537,9.457439987,1.0,0.0
5.978924208,5.087769928,-4.058210907,7.627089386,10.02631393,1.0,0.0
5.988902208,5.617069244,-4.597389679,7.903564453,10.73097339,1.0,0.0
5.998880208,6.651418304,-5.321733398,8.333470459,11.91675047,1.0,0.0
6.008858208,8.159232788,-6.278094635,8.861871643,13.58382571,1.0,0.0
6.018836208,9.572444,-7.106172638,9.33728302,15.14312477,1.0,0.0
6.028814208,10.76037369,-8.092471619,9.942773895,16.737159,1.0,0.0
6.038792208,11.54818542,-8.408614197,10.71456894,17.8568577,1.0,0.0
6.048770208,11.82615738,-8.295748901,11.62138321,18.54006461,1.0,0.0
6.058748208,11.60461807,-7.969277802,12.2346579,18.65109657,1.0,0.0
6.068725208,10.85108505,-7.29313385,12.49257156,18.08314664,1.0,0.0
6.078703208,9.584419098,-6.217919769,12.41054214,16.8684668,1.0,0.0
6.088681208,8.134085083,-5.092559967,11.6228801,15.07278504,1.0,0.0
6.098659208,6.904541931,-4.359983368,10.69855225,13.45886973,1.0,0.0
6.108637208,5.995931396,-3.721111908,9.796378326,12.07339619,1.0,0.0
6.118615208,5.20692215,-3.475921783,8.715775452,10.7312074,1.0,0.0
6.128593208,4.498744812,-2.449057159,7.750133514,9.289841513,1.0,0.0
6.138571208,4.043990479,-2.157313843,6.960974579,8.334448338,1.0,0.0
6.148549208,4.052971802,-2.188898163,6.25414444,7.767379112,1.0,0.0
6.158527208,3.564836884,-1.196461945,5.416785736,6.594023878,1.0,0.0
6.168505208,3.611090698,-1.477277985,5.067861328,6.395744266,1.0,0.0
6.178483208,3.859124908,-1.611848145,4.818330231,6.38021988,1.0,0.0
6.188461208,3.72904541,-1.524130554,4.890779572,6.336282698,1.0,0.0
6.198439208,3.797453156,-1.544188843,4.883744202,6.376215733,1.0,0.0
6.208416208,3.845802612,-1.810934143,4.704716492,6.340665381,1.0,0.0
6.218394208,3.834575958,-1.810335388,4.358187103,6.080713924,1.0,0.0
6.228372208,3.946543121,-1.876946869,4.06599472,5.969124326,1.0,0.0
6.238350208,4.148622894,-2.033072205,3.804189148,5.984672888,1.0,0.0
6.248328208,4.271217957,-2.224524078,3.72320755,6.087206639,1.0,0.0
6.258306208,4.48257843,-2.370919647,3.725003815,6.292092083,1.0,0.0
6.268284208,4.669988708,-2.531984711,3.801345062,6.532225149,1.0,0.0
6.278262208,4.830005951,-2.700085144,3.911965027,6.7766428,1.0,0.0
6.288240208,4.875062256,-2.818189545,4.08365799,6.955910212,1.0,0.0
6.298218208,4.817881165,-2.851869507,4.189487915,6.992635239,1.0,0.0
6.308196208,4.692741394,-2.861449585,4.261637878,6.954945933,1.0,0.0
6.318174208,4.497996368,-2.866988068,4.418661346,6.926482513,1.0,0.0
6.328152208,4.324806519,-2.892734528,4.681664429,6.999274698,1.0,0.0
6.338130208,4.276756439,-3.032992859,4.950505371,7.210908039,1.0,0.0
6.348108208,4.265829163,-3.178939362,5.322481842,7.525408086,1.0,0.0
6.358085208,4.36447403,-3.271746368,5.895639954,8.031906892,1.0,0.0
6.368063208,4.570894775,-3.374732208,6.351292419,8.52178455,1.0,0.0
6.378041208,4.711302795,-3.467239838,6.71159317,8.903011232,1.0,0.0
6.388019208,4.829706573,-3.629801788,7.086413727,9.312292205,1.0,0.0
6.397997208,5.041067047,-3.802392883,7.335495758,9.678845315,1.0,0.0
6.407975208,5.49701889,-4.223616943,7.306306458,10.07165681,1.0,0.0
6.417953208,6.028563538,-4.709656219,7.244934082,10.53629488,1.0,0.0
6.427931208,6.566694489,-5.168601837,7.332202606,11.11742401,1.0,0.0
6.437909208,7.185956726,-5.428760834,7.35166214,11.62567652,1.0,0.0
6.447887208,7.979456635,-5.725593567,7.367379456,12.27731363,1.0,0.0
6.457865208,9.69533844,-6.288722534,7.807314606,13.94638949,1.0,0.0
6.467843208,12.37282059,-6.913223877,7.703131256,16.1312611,1.0,0.0
6.477821208,15.47242493,-7.610174561,6.703360291,18.49988457,1.0,0.0
6.487798208,16.77741119,-7.851622467,6.019731903,19.47733744,1.0,0.0
6.497776208,15.76177322,-7.929759979,6.290518799,18.73193037,1.0,0.0
6.507754208,14.60767319,-8.057743835,7.543263702,18.30880059,1.0,0.0
6.517732208,14.05696838,-8.458161163,8.906179504,18.66705343,1.0,0.0
6.527710208,13.32214645,-8.402476959,9.261690216,18.27183928,1.0,0.0
6.537688208,11.68036057,-7.526947632,9.250313873,16.69293474,1.0,0.0
6.547666208,10.04336472,-6.293662262,9.047485657,14.91094753,1.0,0.0
6.557644208,8.650211792,-5.278922424,8.50306778,13.22858071,1.0,0.0
6.567622208,7.207661591,-4.606071625,7.543413391,11.40479579,1.0,0.0
6.577600208,6.052513733,-3.862118683,6.65426239,9.789182354,1.0,0.0
6.587578208,5.132526855,-3.085832977,6.013295288,8.486749514,1.0,0.0
6.597556208,4.393962708,-2.438878326,5.307213593,7.309004849,1.0,0.0
6.607534208,3.900438995,-1.989213409,4.631668396,6.373597609,1.0,0.0
6.617512208,3.583847351,-1.731000366,4.154760132,5.753464683,1.0,0.0
6.627489208,3.486100616,-1.60885437,3.762575684,5.375712573,1.0,0.0
6.637467208,3.47053299,-1.641037445,3.357967072,5.100347633,1.0,0.0
6.647445208,3.523822174,-1.749412079,3.140918427,5.03419645,1.0,0.0
6.657423208,3.631448364,-1.815125427,2.952909393,5.020136594,1.0,0.0
6.667401208,3.840713196,-1.887125702,2.858904877,5.146421899,1.0,0.0
6.677376167,4.149970093,-2.068548431,2.679577789,5.355490782,1.0,0.0
6.687354167,4.543352051,-2.26059906,2.424807587,5.624237531,1.0,0.0
6.697332167,4.891827393,-2.371967468,2.292782135,5.900258878,1.0,0.0
6.707310167,5.207969971,-2.468666382,2.256407776,6.189397464,1.0,0.0
6.717288167,5.505551147,-2.597099304,2.166145477,6.461285047,1.0,0.0
6.727266167,5.71706131,-2.775677948,2.166594543,6.714410622,1.0,0.0
6.737244167,5.817053375,-2.854264526,2.395618286,6.908250352,1.0,0.0
6.747222167,5.831124115,-2.871927795,2.671793976,7.02769242,1.0,0.0
6.757199167,5.860313416,-2.915636902,3.071612549,7.230422914,1.0,0.0
6.767177167,5.855972443,-2.971321106,3.558400269,7.468826871,1.0,0.0
6.777155167,5.759872284,-2.963237915,3.96660141,7.595448269,1.0,0.0
6.787133167,5.667065277,-2.96847702,4.436474304,7.785228894,1.0,0.0
6.797111167,5.620661774,-2.941533051,4.968018951,8.05764654,1.0,0.0
6.807089167,5.403912506,-2.780767365,5.320835266,8.077513568,1.0,0.0
6.817067167,5.154680786,-2.557132416,5.457800446,7.930778392,1.0,0.0
6.827045167,4.987029419,-2.264640656,5.544170837,7.793387582,1.0,0.0
6.837023167,4.971611481,-1.998643799,5.45031601,7.643130403,1.0,0.0
6.847001167,5.191504211,-2.004930725,5.058580627,7.520684886,1.0,0.0
6.856979167,5.402415619,-2.136656799,4.700824585,7.473228792,1.0,0.0
6.866957167,5.713917847,-2.35071167,4.51655777,7.653365051,1.0,0.0
6.876935167,6.314319305,-2.844385071,4.431833954,8.222062206,1.0,0.0
6.886913167,7.165000305,-3.525169373,4.476590881,9.154447793,1.0,0.0
6.896890167,8.292306061,-4.497098236,4.514761505,10.457978,1.0,0.0
6.906868167,9.919272766,-5.390739899,4.830455017,12.27946841,1.0,0.0
6.916846167,12.04126007,-6.252048798,5.267097015,14.55411863,1.0,0.0
6.926824167,14.33509003,-7.494315491,5.610482941,17.12124673,1.0,0.0
6.936802167,15.34339325,-8.407416687,5.586383057,18.36605694,1.0,0.0
6.946780167,14.92291763,-8.332422638,6.127208405,18.15669079,1.0,0.0
6.956758167,14.80616043,-8.533604279,7.317233734,18.5899623,1.0,0.0
6.966736167,15.23307266,-9.16529068,8.963061218,19.909433,1.0,0.0
6.976714167,15.28666122,-9.34192337,9.897867279,20.46756752,1.0,0.0
6.986692167,15.00315079,-9.32321228,10.66816544,20.63556577,1.0,0.0
6.996670167,14.01894745,-9.109456787,11.22126526,20.13528953,1.0,0.0
7.006648167,12.48478775,-8.356223145,11.27635071,18.78436785,1.0,0.0
7.016626167,10.68418213,-7.370223541,11.15345627,17.1134897,1.0,0.0
7.026603167,8.90438324,-6.373745728,10.47925827,15.15676514,1.0,0.0
7.036581167,7.411687317,-5.254223785,9.602381744,13.21914186,1.0,0.0
7.046559167,6.220314789,-4.036955109,8.834478607,11.53418115,1.0,0.0
7.056537167,5.579497375,-3.361559601,8.064479828,10.36661511,1.0,0.0
7.066515167,5.208119659,-2.436183929,7.385940857,9.360108165,1.0,0.0
7.076493167,4.811893616,-1.61588974,6.642436981,8.359867754,1.0,0.0
7.086471167,4.700375519,-1.383722534,5.793851624,7.587946673,1.0,0.0
7.096449167,4.711602173,-1.212628326,5.144801331,7.080864582,1.0,0.0
7.106427167,4.576582947,-1.096469879,4.557273102,6.551037764,1.0,0.0
7.116405167,4.552632751,-1.205592957,4.132456512,6.26554995,1.0,0.0
7.126383167,4.402195587,-0.3493734741,3.306174774,5.516536907,1.0,0.0
7.136361167,4.294419708,-0.6258485413,2.95919632,5.252672642,1.0,0.0
7.146339167,4.272864532,-0.7087760925,2.75322464,5.132249096,1.0,0.0
7.156316167,4.267775116,-0.5824388123,2.434237976,4.94759072,1.0,0.0
7.166294167,4.2427771,-0.7652087402,2.227068787,4.852477441,1.0,0.0
7.176272167,4.167633362,-0.9737251282,2.14713501,4.788266619,1.0,0.0
7.186250167,4.060007172,-1.037492523,2.167642365,4.717915047,1.0,0.0
7.196228167,4.113296356,-1.121318207,2.208956451,4.801671588,1.0,0.0
7.206206167,4.258793793,-1.585203552,2.384990387,5.132092557,1.0,0.0
7.216184167,4.384232941,-2.121538239,2.545756073,5.495752629,1.0,0.0
7.226162167,4.387526093,-2.389031982,3.100652161,5.879787653,1.0,0.0
7.236140167,4.543352051,-2.569706268,3.470233612,6.268010808,1.0,0.0
7.246118167,4.755910034,-3.099304962,3.974534912,6.929740202,1.0,0.0
7.256096167,4.869972839,-3.439547424,4.497547302,7.468269791,1.0,0.0
7.266074167,4.911735992,-3.629801788,5.02085907,7.906303642,1.0,0.0
7.276052167,4.697980499,-3.504961395,5.567073212,8.083815887,1.0,0.0
7.286030167,4.358037415,-3.276536407,5.830974426,7.983009689,1.0,0.0
7.296007167,4.107608185,-3.04691391,6.049519958,7.921667823,1.0,0.0
7.305985167,3.895648956,-2.821931763,6.296955414,7.924078946,1.0,0.0
7.315963167,3.757486267,-2.713706818,6.374494171,7.881439188,1.0,0.0
7.325941167,3.737427979,-2.792443085,6.396648102,7.917273092,1.0,0.0
7.335919167,3.848197632,-2.903212738,6.368356934,7.987066999,1.0,0.0
7.345897167,4.218976593,-3.097658386,6.368955688,8.243715639,1.0,0.0
7.355875167,4.798421631,-3.456911316,6.363267517,8.687131833,1.0,0.0
7.365853167,5.493875427,-4.005969543,6.345304871,9.300180272,1.0,0.0
7.375831167,6.46939682,-4.760700073,6.496939545,10.33090431,1.0,0.0
7.385809167,7.765551453,-5.591771851,6.806196442,11.74291326,1.0,0.0
7.395787167,9.067394257,-6.205794983,7.206763458,13.14028042,1.0,0.0
7.405765167,10.74121353,-7.649692383,7.805218964,15.32360613,1.0,0.0
7.415743167,12.47460892,-8.81427063,8.583450623,17.52092632,1.0,0.0
7.425720167,13.82225647,-9.497449951,9.327553253,19.19009065,1.0,0.0
7.435698167,14.79762817,-9.858050079,9.906698914,20.35420434,1.0,0.0
7.445676167,15.36839127,-9.83110611,10.51413574,21.05671266,1.0,0.0
7.455654167,15.28097305,-9.476343842,11.11378876,21.13824805,1.0,0.0
7.465632167,14.56067093,-9.180109863,11.37095398,20.62973944,1.0,0.0
7.475610167,13.20299423,-8.519084473,11.26242966,19.33225747,1.0,0.0
7.485588167,11.59069702,-7.618706818,11.01244949,17.71053344,1.0,0.0
7.495566167,9.96328125,-6.620582428,10.4470752,15.88208,1.0,0.0
7.505544167,8.405321045,-5.702242126,9.580527191,13.96250294,1.0,0.0
7.515522167,7.118896179,-4.792284393,8.777746582,12.27572839,1.0,0.0
7.525500167,6.196514282,-3.90807312,7.872878265,10.7541637,1.0,0.0
7.535478167,5.521268463,-3.125201111,6.971303101,9.426046592,1.0,0.0
7.545456167,5.014422455,-2.437531128,6.200705566,8.338749311,1.0,0.0
7.555433167,4.683760071,-1.91541687,5.473517761,7.454248914,1.0,0.0
7.565411167,4.481979675,-1.533261566,4.792883148,6.738750753,1.0,0.0
7.575389167,4.392316132,-1.277593231,4.250411224,6.24425184,1.0,0.0
7.585367167,4.323908386,-1.144070892,3.78173584,5.857184298,1.0,0.0
7.595345167,4.249962158,-1.016236725,3.323538666,5.490066001,1.0,0.0
7.605323167,4.269272003,-0.9436376953,2.974614258,5.288238414,1.0,0.0
7.615301167,4.280798035,-0.9361532593,2.624791718,5.107949324,1.0,0.0
7.625279167,4.205953674,-0.9726773071,2.343227234,4.91191015,1.0,0.0
7.635257167,4.08829834,-0.9915380859,2.16345108,4.730523403,1.0,0.0
7.645235167,3.961811371,-1.035696259,2.063159637,4.585329189,1.0,0.0
7.655213167,3.830684052,-1.249451752,2.071392517,4.53055592,1.0,0.0
7.665191167,3.82963623,-1.445993042,2.105521545,4.603284753,1.0,0.0
7.675169292,3.928430786,-1.709594879,2.141446838,4.789684505,1.0,0.0
7.685146292,4.122726746,-2.071991272,2.254162445,5.135296679,1.0,0.0
7.695124292,4.318669281,-2.43498642,2.386038208,5.502112463,1.0,0.0
7.705102292,4.583618317,-2.891986084,2.495011597,5.966424662,1.0,0.0
7.715080292,5.000052338,-3.36395462,2.634072418,6.576857272,1.0,0.0
7.725058292,5.306016083,-3.595523071,2.896327057,7.033512867,1.0,0.0
7.735036292,5.506598969,-3.673061829,3.149750061,7.330412051,1.0,0.0
7.745014292,5.625451813,-3.701053619,3.441643066,7.562302096,1.0,0.0
7.754992292,5.640720062,-3.656895447,3.840563507,7.742127303,1.0,0.0
7.764970292,5.632636871,-3.535048828,4.211043091,7.871216695,1.0,0.0
7.774948292,5.679190063,-3.415148163,4.54574707,8.036183994,1.0,0.0
7.784926292,5.785469055,-3.388353882,4.891078949,8.299111248,1.0,0.0
7.794904292,5.960305481,-3.415597229,5.267097015,8.656434418,1.0,0.0
7.804882292,6.253845062,-3.504212952,5.527705078,9.052381449,1.0,0.0
7.814860292,6.574627991,-3.646566925,5.726940765,9.450980589,1.0,0.0
7.824837292,7.024592285,-4.157005463,5.868396606,10.05304282,1.0,0.0
7.834815292,7.651488647,-4.837340698,5.82004715,10.76188145,1.0,0.0
7.844793292,8.450976105,-5.400469666,5.738017731,11.55460589,1.0,0.0
7.854771292,10.6301445,-5.870791626,5.657934265,13.39695438,1.0,0.0
7.864749292,13.70460114,-6.69288208,5.051694946,16.06643659,1.0,0.0
7.874727292,15.1369725,-7.565567322,3.782783661,17.3399884,1.0,0.0
7.884705292,14.73026825,-8.024812317,2.443069611,16.95131277,1.0,0.0
7.894683292,13.13009583,-8.450826416,2.421514435,15.80125361,1.0,0.0
7.904661292,15.32842438,-8.797655182,3.748654633,18.06686863,1.0,0.0
7.914639292,16.5477887,-9.194779358,5.862858124,19.81782994,1.0,0.0
7.924617292,16.17551285,-8.416547699,5.412594452,19.02055913,1.0,0.0
7.934595292,15.72614731,-7.033124542,4.055217133,17.69806023,1.0,0.0
7.944572292,15.16167114,-6.025270386,4.08126297,16.81775438,1.0,0.0
7.954550292,14.63910782,-5.207371216,4.063000946,16.06014226,1.0,0.0
7.964528292,13.55072113,-4.657564545,3.522624664,14.75546798,1.0,0.0
7.974506292,11.97390015,-4.134851532,3.104843445,13.0426736,1.0,0.0
7.984484292,10.33301239,-3.777843933,3.057990875,11.41904366,1.0,0.0
7.994462292,8.975934448,-3.420387268,3.209625549,10.12759322,1.0,0.0
8.004440292,7.779322815,-3.286565552,3.078198853,8.988586361,1.0,0.0
8.014418292,6.612798615,-2.8970755,2.960094452,7.80283994,1.0,0.0
8.024396292,5.804030457,-2.37406311,3.080743561,6.986696364,1.0,0.0
8.034374292,5.304369507,-2.140698395,2.863694916,6.39684876,1.0,0.0
8.044352292,4.844226379,-1.815873871,2.571951599,5.777444258,1.0,0.0
8.054330292,4.526137848,-1.516346741,2.355801086,5.323065847,1.0,0.0
8.064308292,4.468807068,-1.466949463,1.917063446,5.079105196,1.0,0.0
8.074285292,4.454436951,-1.508113861,1.428778839,4.915061031,1.0,0.0
8.084263292,4.56565567,-1.597328339,0.9469308472,4.928828213,1.0,0.0
8.094241292,4.768184509,-1.712888031,0.5792953491,5.099524686,1.0,0.0
8.104219292,4.929998016,-1.805096283,0.2297721863,5.255097363,1.0,0.0
8.114197292,5.170847168,-1.988914032,-0.0940045166,5.540963482,1.0,0.0
8.124175292,5.48070282,-2.280058594,-0.1766326904,5.938684172,1.0,0.0
8.134153292,5.773793335,-2.503843231,-0.2439926147,6.298051508,1.0,0.0
8.144131292,6.03769455,-2.713257751,-0.3963757324,6.631186683,1.0,0.0
8.154109292,6.322252808,-2.882106628,-0.3782633972,6.958484201,1.0,0.0
8.164087292,6.56070694,-2.829416199,-0.2270777893,7.148428911,1.0,0.0
8.174065292,6.644382935,-2.572400665,-0.1050814819,7.125735884,1.0,0.0
8.184043292,6.760092316,-2.400558014,0.09415420532,7.174286857,1.0,0.0
8.194021292,6.8133815,-2.197580109,0.3146456909,7.165928252,1.0,0.0
8.203999292,6.812483368,-1.964065704,0.554147644,7.111579525,1.0,0.0
8.213976292,6.79003006,-1.760339355,0.8828640747,7.069848077,1.0,0.0
8.223954292,6.950945435,-1.73519165,1.362915802,7.292741047,1.0,0.0
8.233932292,7.185956726,-1.818717957,1.929936676,7.659658259,1.0,0.0
8.243910292,7.458240509,-1.941462708,2.42795105,8.080196485,1.0,0.0
8.253888292,7.801925812,-2.217937775,2.859803009,8.600451593,1.0,0.0
8.263866292,8.251890106,-2.926863556,2.988834686,9.2516676,1.0,0.0
8.273844292,8.964558105,-3.671864319,3.289709015,10.23074166,1.0,0.0
8.283822292,10.00399658,-4.57388855,3.548520813,11.55821803,1.0,0.0
8.293800292,11.24880798,-5.857020264,3.532803497,13.16514595,1.0,0.0
8.303778292,12.72339157,-7.104825439,3.48565155,14.98375802,1.0,0.0
8.313756292,14.27341827,-7.95775177,3.568579102,16.72695547,1.0,0.0
8.323734292,15.73752365,-8.821156311,3.445834351,18.36725956,1.0,0.0
8.333711292,16.85494995,-9.81119751,3.054997101,19.74036326,1.0,0.0
8.343689292,17.49561768,-10.13317795,2.806364136,20.41209477,1.0,0.0
8.353667292,17.20836502,-8.558901672,2.92985733,19.4413654,1.0,0.0
8.363645292,16.30170044,-7.266788635,2.931503906,18.08716035,1.0,0.0
8.373623292,15.18262756,-6.11598175,2.709216156,16.59087896,1.0,0.0
8.383601292,13.92209885,-5.27592865,2.647095337,15.12175166,1.0,0.0
8.393579292,12.50290009,-4.36671936,2.650089111,13.50606237,1.0,0.0
8.403557292,11.0122998,-3.596570892,2.670596466,11.88857244,1.0,0.0
8.413535292,9.797426147,-3.181184692,2.812052307,10.67788056,1.0,0.0
8.423513292,8.861422577,-2.96727951,2.834206238,9.765361375,1.0,0.0
8.433491292,8.009095001,-2.73451355,2.675386505,8.875858271,1.0,0.0
8.443469292,7.243437195,-2.413131866,2.368374939,7.993734275,1.0,0.0
8.453446292,6.700366516,-2.092947693,2.105970612,7.328741619,1.0,0.0
8.463424292,6.308182068,-1.858535156,1.855840759,6.833114872,1.0,0.0
8.473402292,6.064937897,-1.782942352,1.497336273,6.496489132,1.0,0.0
8.483380292,5.947731628,-1.831591187,1.177451477,6.333769003,1.0,0.0
8.493358292,5.951623535,-1.974843292,0.9445358276,6.341449098,1.0,0.0
8.503336292,5.98844696,-2.107168121,0.7265890503,6.389803294,1.0,0.0
8.513314292,6.009403381,-2.334395599,0.4915777588,6.465599779,1.0,0.0
8.523292292,6.072272644,-2.595153351,0.226179657,6.607455881,1.0,0.0
8.533270292,6.143524475,-2.84333725,0.007334747314,6.769602166,1.0,0.0
8.543248292,6.220015411,-3.062481537,-0.213306427,6.936345184,1.0,0.0
8.553226292,6.3887146,-3.30078598,-0.3809577942,7.201110412,1.0,0.0
8.563204292,6.621330872,-3.516487427,-0.4864883423,7.512947307,1.0,0.0
8.573182292,6.797813873,-3.69985611,-0.496816864,7.755387526,1.0,0.0
8.583159292,6.969357147,-3.851790161,-0.4665797424,7.976585933,1.0,0.0
8.593137292,7.091802521,-3.944746857,-0.3724255371,8.123631672,1.0,0.0
8.603115292,7.156917114,-3.950285339,-0.1577719116,8.176252737,1.0,0.0
8.613093292,7.211104431,-3.942351837,0.1411564636,8.219616188,1.0,0.0
8.623071292,7.074887695,-3.749552765,0.5261558533,8.024339339,1.0,0.0
8.633049292,6.82864975,-3.387904816,1.068478088,7.697402281,1.0,0.0
8.643027292,6.672524414,-3.148851929,1.507215729,7.530574333,1.0,0.0
8.653005292,6.579118652,-3.023562469,1.887574768,7.48262459,1.0,0.0
8.662983292,6.502028961,-2.915936279,2.298470306,7.48745823,1.0,0.0
8.672964667,6.473288727,-2.879112854,2.657573547,7.566733438,1.0,0.0
8.682942667,6.612499237,-3.121159515,3.005150757,7.905549567,1.0,0.0
8.692920667,6.961273956,-3.580254822,3.221001892,8.464774827,1.0,0.0
8.702898667,7.528444519,-4.241280212,3.334016876,9.261835846,1.0,0.0
8.712875667,8.270301819,-5.077591095,3.365451508,10.27161562,1.0,0.0
8.722853667,9.245523834,-6.063141632,3.301833801,11.5387826,1.0,0.0
8.732831667,10.49766998,-7.133715363,3.088826752,13.06261156,1.0,0.0
8.742809667,11.64638123,-8.09696228,2.781665497,14.45464136,1.0,0.0
8.752787667,12.82428177,-9.084608459,2.468666382,15.9086966,1.0,0.0
8.762765667,13.97808243,-9.666448517,2.267185364,17.14547009,1.0,0.0
8.772743667,14.77457611,-9.792636108,2.131567383,17.85293815,1.0,0.0
8.782721667,15.17170029,-9.491163025,1.927841034,17.99942322,1.0,0.0
8.792699667,15.16870651,-8.795709229,1.771416321,17.62362261,1.0,0.0
8.802677667,14.81334549,-7.798782349,1.606758728,16.81778476,1.0,0.0
8.812655667,14.1190892,-6.703060913,1.389111328,15.6910591,1.0,0.0
8.822633667,13.18682785,-5.665269012,1.168619843,14.39976993,1.0,0.0
8.832610667,12.17612961,-4.822072449,1.132844238,13.14510749,1.0,0.0
8.842588667,11.09402985,-4.259991302,1.271605682,11.95165282,1.0,0.0
8.852566667,10.0647702,-3.720962219,1.462309113,10.82975101,1.0,0.0
8.862544667,9.131760406,-3.32533493,1.614392853,9.851556466,1.0,0.0
8.872522667,8.274193726,-3.046315155,1.732048187,8.985672415,1.0,0.0
8.882500667,7.585924988,-2.676584015,1.876348114,8.26020836,1.0,0.0
8.892478667,6.908882904,-2.270478516,1.930834808,7.52435105,1.0,0.0
8.902456667,6.352489929,-1.949695587,1.859882355,6.900333583,1.0,0.0
8.912434667,5.993835754,-1.787433014,1.758842468,6.497269477,1.0,0.0
8.922412667,5.719306641,-1.681902466,1.610650635,6.175229536,1.0,0.0
8.932390667,5.570366364,-1.661095734,1.392254791,5.977172732,1.0,0.0
8.942368667,5.528154144,-1.759291534,1.209035797,5.925990424,1.0,0.0
8.952345667,5.567821655,-1.892514496,1.015338593,5.967676395,1.0,0.0
8.962323667,5.664670258,-2.090702362,0.7610174561,6.085940606,1.0,0.0
8.972301667,5.845194855,-2.411784668,0.4857398987,6.341841328,1.0,0.0
8.982279667,6.116879883,-2.775378571,0.2865042114,6.723171155,1.0,0.0
8.992257667,6.328090668,-3.068169708,0.1675016785,7.034660878,1.0,0.0
9.002235667,6.425538025,-3.300037537,0.05987548828,7.223667471,1.0,0.0
9.012213667,6.511309662,-3.508404236,-0.09969268799,7.397025918,1.0,0.0
9.022191667,6.677464142,-3.702550507,-0.1490899658,7.636729368,1.0,0.0
9.032169667,6.819668427,-3.802243195,-0.1047821045,7.808707322,1.0,0.0
9.042147667,6.845564575,-3.847000122,-0.02395019531,7.852498832,1.0,0.0
9.052125667,6.760242004,-3.752696228,0.1637594604,7.733719551,1.0,0.0
9.062103667,6.666536865,-3.446882172,0.6004014587,7.528890515,1.0,0.0
9.072081667,6.594536591,-3.157084808,1.09991272,7.393571892,1.0,0.0
9.082058667,6.569388885,-3.063679047,1.484912109,7.399186685,1.0,0.0
9.092036667,6.666985931,-3.0258078,1.885928192,7.560485394,1.0,0.0
9.102014667,6.692582703,-2.932102661,2.33319809,7.670182695,1.0,0.0
9.111992667,6.670129395,-2.821782074,2.697690125,7.728558224,1.0,0.0
9.121970667,6.617738342,-2.731070709,3.035836945,7.776214628,1.0,0.0
9.131948667,6.513105927,-2.652184753,3.338507538,7.784617226,1.0,0.0
9.141926667,6.523434448,-2.595901794,3.641477509,7.909125209,1.0,0.0
9.151904667,6.480024719,-2.484683075,3.861070862,7.94180323,1.0,0.0
9.161882667,6.420149231,-2.331252136,4.013004913,7.921948062,1.0,0.0
9.171860667,6.432274017,-2.256707153,4.073179779,7.940885953,1.0,0.0
9.181838667,6.604416046,-2.406246185,3.996389465,8.085756661,1.0,0.0
9.191816667,6.961723022,-2.784060516,3.704346771,8.362939998,1.0,0.0
9.201794667,7.43009903,-3.338507538,3.239114227,8.766063264,1.0,0.0
9.211771667,8.1192659,-4.117038574,2.754721527,9.511097521,1.0,0.0
9.221749667,9.083111572,-4.942122803,2.348616028,10.60393752,1.0,0.0
9.231727667,10.1577269,-5.680537262,1.993255005,11.80766636,1.0,0.0
9.241705667,11.23608444,-6.489904175,1.53401001,13.066049,1.0,0.0
9.251683667,12.44497055,-7.422913971,1.294358368,14.54827507,1.0,0.0
9.261661667,13.6638858,-8.034242706,1.074914703,15.8872991,1.0,0.0
9.271639667,14.81768646,-8.434809723,0.8286767578,17.07034131,1.0,0.0
9.281617667,15.9611586,-8.736881561,0.7685018921,18.21214645,1.0,0.0
9.291595667,16.94626007,-8.987310791,1.020577698,19.20908807,1.0,0.0
9.301573667,17.85202652,-9.001531219,1.256038055,20.0324748,1.0,0.0
9.311551667,18.53086487,-8.949289856,1.602567444,20.64100201,1.0,0.0
9.321529667,18.5822081,-9.025481415,1.580712891,20.71850443,1.0,0.0
9.331506667,17.99183578,-8.931776276,1.90134613,20.1766672,1.0,0.0
9.341484667,16.97844315,-8.613388367,2.521207123,19.20454311,1.0,0.0
9.351462667,15.75967758,-8.255332947,3.090922394,18.05745721,1.0,0.0
9.361440667,14.41487411,-7.739804993,3.558100891,16.74375284,1.0,0.0
9.371418667,12.89942551,-7.018455048,4.382885742,15.32525945,1.0,0.0
9.381396667,11.34206406,-5.85746933,4.617747345,13.57482798,1.0,0.0
9.391374667,10.8903035,-4.954696655,3.530857544,12.47456148,1.0,0.0
9.401352667,10.22897873,-4.173620911,3.449875946,11.57379633,1.0,0.0
9.411330667,9.4437117,-3.069067841,3.401975555,10.49649016,1.0,0.0
9.421308667,8.269104309,-2.043251038,2.854264526,8.98330601,1.0,0.0
9.431286667,7.518265686,-1.16891922,2.189945984,7.9174841,1.0,0.0
9.441264667,7.709118805,-0.9639953613,1.281485138,7.874135125,1.0,0.0
9.451241667,6.617738342,-1.146765289,1.284628601,6.838113924,1.0,0.0
9.461219667,5.78606781,-0.2007325745,1.180145874,5.908605466,1.0,0.0
9.471197667,5.648354187,-0.05882766724,0.6912625122,5.690800434,1.0,0.0
9.481175667,5.394033051,-0.1923500061,0.877325592,5.468298755,1.0,0.0
9.491153667,5.065615997,-0.03263214111,0.5525010681,5.095761741,1.0,0.0
9.501131667,4.66400116,0.08681945801,0.2320175171,4.670575614,1.0,0.0
9.511109667,4.343068542,0.1981878662,-0.1957928467,4.351994673,1.0,0.0
9.521087667,3.810476074,0.2441423035,-0.5613327026,3.859329965,1.0,0.0
9.531065667,3.356769562,0.3611988831,-0.8421487427,3.479594952,1.0,0.0
9.541043667,2.975961456,0.4652325439,-1.155297546,3.226065767,1.0,0.0
9.551021667,2.814597015,0.3215313721,-1.189276886,3.072412455,1.0,0.0
9.560999667,2.774031372,0.1704954529,-1.14901062,3.007414863,1.0,0.0
9.570977667,2.875220947,-0.1118174744,-0.4987628174,2.920301866,1.0,0.0
9.580954667,3.039728851,-0.1733395386,0.2110610962,3.05197393,1.0,0.0
9.590932667,3.322191467,-0.2532733154,0.9719288635,3.470698666,1.0,0.0
9.600910667,4.175716553,-0.5447172546,1.940714264,4.636776625,1.0,0.0
9.610888667,5.201383667,-0.9616003418,2.606080627,5.896670544,1.0,0.0
9.620866667,6.15460144,-1.120420074,3.762276306,7.299944043,1.0,0.0
9.630844667,7.44761261,-1.221010895,4.77162735,8.928954516,1.0,0.0
9.640822667,8.926387482,-1.945204926,5.441783752,10.6337776,1.0,0.0
9.650800667,10.54766602,-2.823278961,7.058421936,13.00174922,1.0,0.0
9.660778667,11.97390015,-3.200943604,8.738677826,15.16525024,1.0,0.0
9.670756667,13.41345657,-3.794908447,10.78507233,17.62498035,1.0,0.0
9.680731292,14.63865875,-4.371060333,12.45140717,19.70873002,1.0,0.0
9.690709292,15.46104858,-4.802612915,13.45072906,21.04830697,1.0,0.0
9.700686292,15.84006042,-5.28880188,14.31069077,21.99260807,1.0,0.0
9.710664292,16.01519623,-5.295986938,14.78640152,22.43148809,1.0,0.0
9.720642292,15.79500412,-5.269342346,14.92276794,22.35927385,1.0,0.0
9.730620292,15.47960999,-5.236560516,15.14565445,22.28072575,1.0,0.0
9.740598292,15.01452713,-4.928201752,15.00749176,21.79330187,1.0,0.0
9.750576292,14.44945221,-4.72013443,14.79283813,21.21071423,1.0,0.0
9.760554292,13.90069336,-4.525389404,14.54824677,20.62425536,1.0,0.0
9.770532292,13.14461563,-4.189038849,13.98586624,19.64518824,1.0,0.0
9.780510292,12.05054077,-3.692521362,13.40193054,18.39733647,1.0,0.0
9.790488292,10.72789124,-3.126997375,12.61307098,16.85097394,1.0,0.0
9.800466292,9.305399323,-2.6011409,11.55926239,15.06562105,1.0,0.0
9.810444292,7.994275818,-2.163301392,10.35232224,13.25740904,1.0,0.0
9.820421292,6.791976013,-1.859732666,9.030570831,11.45167033,1.0,0.0
9.830399292,5.598507843,-1.473835144,7.371271362,9.372892915,1.0,0.0
9.840377292,4.324207764,-0.9774673462,5.777385864,7.28233497,1.0,0.0
9.850355292,3.081192627,-0.5207670593,4.421206055,5.414056641,1.0,0.0
9.860333292,2.14713501,-0.1621128845,3.181035004,3.841282733,1.0,0.0
9.870311292,1.327289886,0.199385376,2.242337036,2.613336632,1.0,0.0
9.880289292,0.6008505249,0.537532196,1.507814484,1.709814824,1.0,0.0
9.890267292,0.135617981,0.7797285461,0.8644523621,1.172026761,1.0,0.0
9.900245292,-0.07948471069,0.8213420105,0.48559021,0.9574541083,1.0,0.0
9.910223292,-0.1824705505,0.8931925964,0.2097138977,0.935450926,1.0,0.0
9.920201292,-0.2758763123,1.045725403,0.03053649902,1.081934303,1.0,0.0
9.930179292,-0.413739624,1.179247742,-0.2676434326,1.278060531,1.0,0.0
9.940157292,-0.4578977966,1.235081635,-0.5536985779,1.428873385,1.0,0.0
9.950134292,-0.4724176025,1.329535217,-0.8292755127,1.636624624,1.0,0.0
9.960112292,-0.4171824646,1.437161407,-1.074465637,1.842267767,1.0,0.0
9.970090292,-0.2766247559,1.489103394,-1.411414948,2.070275906,1.0,0.0
9.980068292,-0.1919009399,1.523831177,-1.73519165,2.317278035,1.0,0.0
9.990046292,-0.1276844788,1.560504913,-1.865271149,2.435306011,1.0,0.0
15.00893692,0.3113525391,3.384012909,-0.1675016785,3.402431569,1.0,1.0
15.01891492,0.7280859375,3.261866913,-0.05029541016,3.342516196,1.0,1.0
15.02889192,1.076860657,2.988535309,-0.005987548828,3.1766347,1.0,1.0
15.03886992,1.584155731,2.617157593,0.07604187012,3.060203525,1.0,1.0
15.04884792,2.187401276,1.934427338,0.08307723999,2.921238657,1.0,1.0
15.05882592,2.887645111,0.9404942322,0.09909393311,3.038559411,1.0,1.0
15.06880392,4.14562912,-0.7997868347,0.1151106262,4.223641822,1.0,1.0
15.07878192,6.817123718,-4.454137573,-0.4438270569,8.155335662,1.0,1.0
15.08875992,12.31938171,-11.01334763,-0.6882687378,16.53888465,1.0,1.0
15.09873792,18.74866196,-19.00343216,-0.6015989685,26.70214749,1.0,1.0
15.10871592,25.67460938,-26.85430618,-0.8982820129,37.16377588,1.0,1.0
15.11869392,29.51921448,-31.29886368,1.585353241,43.05248234,1.0,1.0
15.12867092,32.31165756,-32.76266968,2.957849121,46.1105694,1.0,1.0
15.13864892,35.30528229,-34.7238913,3.840114441,49.66848159,1.0,1.0
15.14862692,33.5891011,-33.42534164,5.517077179,47.70659617,1.0,1.0
15.15860492,29.23016556,-30.39324692,6.299051056,42.63601859,1.0,1.0
15.16858292,25.25233749,-28.6510199,7.577093353,38.93550865,1.0,1.0
15.17856092,20.86645798,-25.78148712,9.175469513,34.41341871,1.0,1.0
15.18853892,16.57817551,-21.37659714,9.737999725,28.75105993,1.0,1.0
15.19851692,13.99769165,-17.6292897,8.785530396,24.16428711,1.0,1.0
15.20849492,12.15487381,-14.74224335,6.201004944,20.08798543,1.0,1.0
15.21847292,10.47327072,-11.53426437,3.25513092,15.91617201,1.0,1.0
15.22845092,9.204209747,-8.497229919,0.7494914246,12.54918845,1.0,1.0
15.23842792,8.336613922,-5.767805786,-1.261277161,10.2155536,1.0,1.0
15.24840592,7.230264587,-3.42368042,-2.714305573,8.447826251,1.0,1.0
15.25838392,5.666466522,-1.755549316,-3.742367706,7.013994033,1.0,1.0
15.26836192,3.803740082,-0.7955955505,-4.653522949,6.062729313,1.0,1.0
15.27833992,1.807341614,-0.4086502075,-5.854924622,6.141141671,1.0,1.0
15.28831792,-0.1899549866,0.1212478638,-6.769522705,6.773272591,1.0,1.0
15.29829592,-1.959125977,0.7161108398,-7.429350586,7.716620987,1.0,1.0
15.30827392,-2.979553986,0.9005273438,-7.957302704,8.544434315,1.0,1.0
15.31825192,-3.504512329,1.118025055,-8.071964264,8.870636604,1.0,1.0
15.32822992,-3.740421753,1.369951172,-7.975864105,8.91526384,1.0,1.0
15.33820792,-3.833977203,1.924248505,-7.514373779,8.652625428,1.0,1.0
15.34818492,-3.392994232,2.017354889,-6.733597412,7.805348469,1.0,1.0
15.35816292,-3.081192627,2.252066803,-5.809119873,6.950642171,1.0,1.0
15.36814092,-2.771786041,2.507884827,-4.886588287,6.152319014,1.0,1.0
15.37811892,-2.29802124,2.563718719,-3.926185455,5.221923738,1.0,1.0
15.38809692,-1.87215683,2.665057983,-2.996468811,4.425644652,1.0,1.0
15.39807492,-1.482666779,2.847528534,-2.336341553,3.970542958,1.0,1.0
15.40805292,-1.198108521,2.975063324,-1.702709198,3.631209774,1.0,1.0
15.41803092,-0.9264234924,3.049608307,-1.208437042,3.40862016,1.0,1.0
15.42800892,-0.519868927,3.13582901,-0.8809181213,3.298439634,1.0,1.0
15.43798692,-0.1895059204,3.266507263,-0.724044342,3.351152399,1.0,1.0
15.44796492,0.1886077881,3.313958588,-0.5905220032,3.371440442,1.0,1.0
15.45794192,0.5947132874,3.397035828,-0.6030958557,3.501037121,1.0,1.0
15.46791992,0.8571176147,3.547023926,-0.799637146,3.735699252,1.0,1.0
15.47789792,1.268761597,3.37922287,-1.009949799,3.748186467,1.0,1.0
15.48787592,1.792821808,3.008593597,-1.038839722,3.653085468,1.0,1.0
15.49785392,2.507884827,2.512974243,-1.059347076,3.704961819,1.0,1.0
15.50783192,3.461401978,1.50003067,-1.135089569,3.939520782,1.0,1.0
15.51780992,5.094655609,-0.4599934387,-1.39360199,5.30181443,1.0,1.0
15.52778792,7.962092743,-4.101470947,-1.95283905,9.166818703,1.0,1.0
15.53776592,11.70056854,-8.77101059,-1.717378693,14.72356345,1.0,1.0
15.54774392,16.2862825,-14.22447006,-1.363514557,21.66651145,1.0,1.0
15.55772192,21.83644089,-20.34748718,-1.154399414,29.86943293,1.0,1.0
15.56769892,27.23256958,-25.21536438,1.12790451,37.13084453,1.0,1.0
15.57767692,31.09304169,-27.90197754,4.297862549,41.99725246,1.0,1.0
15.58765492,32.78826645,-27.52461227,5.37771698,43.14619957,1.0,1.0
15.59763292,33.27849701,-27.40965134,5.606291656,43.47617573,1.0,1.0
15.60761092,33.3820816,-29.4419751,6.14532074,44.93281915,1.0,1.0
15.61758892,31.0901976,-31.84867035,6.738986206,45.0150211,1.0,1.0
15.62756692,25.8998909,-31.66769669,8.480015717,41.77987588,1.0,1.0
15.63754492,20.19375687,-29.46293152,10.35351974,37.18934688,1.0,1.0
15.64752292,15.21990005,-24.64999008,11.42424316,31.14130217,1.0,1.0
15.65750092,12.53283783,-19.50294342,10.60185333,25.49188342,1.0,1.0
15.66747892,11.34850067,-15.98555786,8.439001007,21.34345955,1.0,1.0
15.67745592,10.56308395,-12.69075943,5.280868378,17.33556138,1.0,1.0
15.68743367,10.05084915,-9.668244781,2.269131317,14.12952521,1.0,1.0
15.69741167,9.450896759,-6.689738617,-0.3014730835,11.58287263,1.0,1.0
15.70738967,8.678353271,-3.928131409,-2.615211639,9.878429217,1.0,1.0
15.71736767,7.790549469,-1.938468933,-3.952979736,8.948540195,1.0,1.0
15.72734567,6.537505188,-0.6117778015,-4.626279602,8.03216715,1.0,1.0
15.73732367,5.087919617,0.3556604004,-5.253325653,7.3219431,1.0,1.0
15.74730167,3.606600037,0.8976832581,-5.64101944,6.755331182,1.0,1.0
15.75727967,2.178419952,1.2660672,-6.19681366,6.68946479,1.0,1.0
15.76725767,0.9306147766,1.471889191,-6.73733963,6.958753261,1.0,1.0
15.77723467,-0.08996292114,1.660796356,-7.08835968,7.280877751,1.0,1.0
15.78721267,-0.7213499451,1.806144104,-7.125482483,7.386135856,1.0,1.0
15.79719067,-1.387165375,2.243384857,-6.66249527,7.165601623,1.0,1.0
15.80716867,-1.830543365,2.680326233,-6.219416656,7.015424526,1.0,1.0
15.81714667,-2.048490143,2.804418182,-5.809269562,6.768211436,1.0,1.0
15.82712467,-2.159110107,2.935994568,-5.199587402,6.349608627,1.0,1.0
15.83710267,-2.4525,3.256627808,-4.489015045,6.063962154,1.0,1.0
15.84708067,-2.766696625,3.676953735,-3.681594086,5.893109026,1.0,1.0
15.85705867,-2.676434326,3.896247711,-2.834056549,5.511435698,1.0,1.0
15.86703667,-2.561473389,4.167333984,-1.895059204,5.245861974,1.0,1.0
15.87701467,-2.214644623,4.539609833,-1.290017395,5.213142346,1.0,1.0
15.88699167,-1.687740326,4.742737427,-0.9466314697,5.122317527,1.0,1.0
15.89696967,-0.9419911194,4.747377777,-0.8581654358,4.915423781,1.0,1.0
15.90694767,-0.01437011719,4.774471436,-1.124311981,4.905085261,1.0,1.0
15.91692567,0.9906399536,4.742138672,-1.464404755,5.06100069,1.0,1.0
15.92690367,1.885179749,4.372108154,-1.838776245,5.103952437,1.0,1.0
15.93688167,2.483784943,3.873794403,-2.136806488,5.073599579,1.0,1.0
15.94685967,3.025059357,3.406615906,-2.067949677,5.003242139,1.0,1.0
15.95683767,3.235671387,3.024759979,-1.6615448,4.730694809,1.0,1.0
15.96681567,3.476819916,2.468217316,-1.243314514,4.44141919,1.0,1.0
15.97679367,4.215683441,1.215023346,-0.6340814209,4.432869032,1.0,1.0
15.98677167,5.670508118,-1.081650696,0.2350112915,5.777530688,1.0,1.0
15.99674867,8.712182922,-4.721481628,1.301543427,9.994425213,1.0,1.0
16.00672667,12.1536763,-9.025930481,3.419638824,15.52009015,1.0,1.0
16.01670467,16.94835571,-13.47572708,5.429658966,22.32315341,1.0,1.0
16.02668267,24.3922261,-20.24315414,8.096662903,32.71577501,1.0,1.0
16.03666067,29.67504044,-26.48008438,12.51113297,41.69330092,1.0,1.0
16.04663867,31.86079514,-27.62086212,13.16048264,44.17262268,1.0,1.0
16.05661667,31.35589508,-25.23736862,13.30942291,42.39407588,1.0,1.0
16.06659467,30.12021469,-22.63398239,14.14049469,40.24273949,1.0,1.0
16.07657267,28.1082486,-20.69132217,13.21736435,37.32161804,1.0,1.0
16.08655067,25.49423447,-19.06869644,12.72339157,34.28492188,1.0,1.0
16.09652867,23.33736969,-19.18290894,12.50304977,32.69469487,1.0,1.0
16.10650567,20.96510284,-18.178797,11.43936172,30.01438312,1.0,1.0
16.11648367,17.98689606,-14.08091858,10.19245468,25.01373283,1.0,1.0
16.12646167,16.34061951,-10.06596771,9.448352051,21.3918421,1.0,1.0
16.13643967,15.46044983,-7.289840698,8.044571228,18.89133168,1.0,1.0
16.14641767,14.26458664,-4.962630157,5.915548553,16.22035279,1.0,1.0
16.15639567,12.59929962,-2.282902679,3.710034943,13.33110479,1.0,1.0
16.16637367,10.77339661,0.3606001282,1.617386627,10.90009387,1.0,1.0
16.17635167,8.85289032,2.039957886,-0.0,9.084882784,1.0,1.0
16.18632967,7.173233185,2.892584839,-0.9367520142,7.791009287,1.0,1.0
16.19630767,5.628744965,3.475023651,-1.286275177,6.738921507,1.0,1.0
16.20628467,4.155957642,4.076772308,-1.192120972,5.942491799,1.0,1.0
16.21626267,3.055296478,4.436773682,-1.040785675,5.486623014,1.0,1.0
16.22624067,2.201472015,4.597689056,-0.9383985901,5.183224441,1.0,1.0
16.23621867,1.552870789,4.718787231,-0.9075627136,5.049953535,1.0,1.0
16.24619667,1.013093262,5.017116852,-1.329834595,5.288315376,1.0,1.0
16.25617467,1.008303223,4.72597229,-1.775757294,5.148281601,1.0,1.0
16.26615267,0.7110214233,4.50368454,-2.173929291,5.051207228,1.0,1.0
16.27613067,0.296383667,4.429289246,-2.718047791,5.205211839,1.0,1.0
16.28610867,0.08771759033,4.230951691,-3.018173676,5.197886005,1.0,1.0
16.29608667,-0.1453477478,4.021836548,-3.140768738,5.104970465,1.0,1.0
16.30606467,-0.2421963501,3.785328369,-3.309168549,5.033683186,1.0,1.0
16.31604167,-0.3047662354,3.432512054,-3.098706207,4.634328605,1.0,1.0
16.32601967,-0.3754193115,3.181933136,-2.692900085,4.185373222,1.0,1.0
16.33599767,-0.3326083374,3.069367218,-2.321073303,3.862515334,1.0,1.0
16.34597567,-0.330662384,2.984044647,-1.906585236,3.556533049,1.0,1.0
16.35595367,-0.3005749512,2.743644562,-1.523082733,3.152413646,1.0,1.0
16.36593167,-0.008232879639,2.473157043,-0.9919871521,2.664697366,1.0,1.0
16.37590967,0.4486170959,2.16704361,-0.4640350342,2.261120036,1.0,1.0
16.38588767,0.74065979,1.98098053,0.03981719971,2.115288678,1.0,1.0
16.39586567,1.19586319,1.69896698,0.9201365662,2.272273942,1.0,1.0
16.40584367,1.635498962,1.325792999,1.451980591,2.55750495,1.0,1.0
16.41582167,1.976789246,1.007105713,1.922152863,2.935409557,1.0,1.0
16.42579867,2.529140625,0.4599934387,2.479893036,3.571836465,1.0,1.0
16.43577667,3.173700256,-0.2209405518,3.216810608,4.524274365,1.0,1.0
16.44575467,4.193828888,-1.354383545,4.338577881,6.184319975,1.0,1.0
16.45573267,5.666316833,-3.024161224,6.288423157,8.98871311,1.0,1.0
16.46571067,7.973918152,-5.139113159,9.251661072,13.25092779,1.0,1.0
16.47568867,12.002341,-8.606802063,13.26331879,19.85066388,1.0,1.0
16.48566667,16.4668071,-12.14289871,16.76828018,26.45337304,1.0,1.0
16.49564467,20.48160828,-15.12335083,19.23919189,31.91173017,1.0,1.0
16.50562267,24.01875275,-18.85015091,21.18095398,37.15994462,1.0,1.0
16.51560067,25.87773697,-20.32593201,22.16455856,39.67453136,1.0,1.0
16.52557867,24.97122208,-19.01121597,22.72469376,38.7479028,1.0,1.0
16.53555567,22.46633102,-18.23912155,22.21754837,36.48316105,1.0,1.0
16.54553367,19.24742477,-17.52256165,21.92445786,34.03212276,1.0,1.0
16.55551167,15.79201035,-16.3154718,22.17234238,31.73633529,1.0,1.0
16.56548967,12.89703049,-14.88968674,22.83980438,30.16111455,1.0,1.0
16.57546767,10.4098027,-13.01348831,22.42890884,27.94227661,1.0,1.0
16.58544567,8.60246109,-10.89988358,21.13050888,25.28454477,1.0,1.0
16.59542367,7.130422211,-8.610095215,18.68369705,21.77285457,1.0,1.0
16.60540167,6.101761322,-6.446344757,15.78901657,18.11297591,1.0,1.0
16.61537967,5.529651031,-4.605173492,12.8185936,14.70037432,1.0,1.0
16.62535767,4.68390976,-2.803070984,10.49527496,11.82992029,1.0,1.0
16.63533467,3.776347046,-1.342558136,8.583151245,9.472789698,1.0,1.0
16.64531267,2.935246124,-0.1841171265,6.834786987,7.440690968,1.0,1.0
16.65529067,2.157313843,0.8887019348,5.309009857,5.799084394,1.0,1.0
16.66526867,1.592687988,1.632205811,4.033661957,4.633700424,1.0,1.0
16.67524667,1.021326141,2.221081238,2.732866974,3.666724812,1.0,1.0
16.68522446,0.4364923096,2.570903778,1.728006592,3.128270857,1.0,1.0
16.69520246,-0.02754272461,2.663561096,1.08703949,2.87697257,1.0,1.0
16.70518046,-0.475411377,2.910996552,0.6792874146,3.026771926,1.0,1.0
16.71515846,-0.6119274902,2.973267059,0.429307251,3.065791411,1.0,1.0
16.72513646,-0.7464976501,3.11831543,0.08741821289,3.20761466,1.0,1.0
16.73511446,-0.6676116943,3.14870224,-0.04580474854,3.219026133,1.0,1.0
16.74509146,-0.5312452698,3.299887848,-0.2914439392,3.355059003,1.0,1.0
16.75506946,-0.7156617737,3.685336304,-0.6210585022,3.805205528,1.0,1.0
16.76504746,-0.8562194824,3.804039459,-0.8500822449,3.990797894,1.0,1.0
16.77502546,-0.9446855164,4.027674408,-1.15140564,4.294220163,1.0,1.0
16.78500346,-1.109792175,4.390819244,-1.372346191,4.732258063,1.0,1.0
16.79498146,-1.162632294,4.476291504,-1.41934845,4.837711184,1.0,1.0
16.80495946,-1.083746338,4.416116638,-1.433419189,4.767733514,1.0,1.0
16.81493746,-1.071172485,4.458478546,-1.43686203,4.80520696,1.0,1.0
16.82491546,-0.7794291687,4.17481842,-1.119521942,4.392032337,1.0,1.0
16.83489346,-0.5611830139,3.941753082,-0.6912625122,4.041062682,1.0,1.0
16.84487146,-0.3176394653,3.608995056,-0.1591191101,3.626438892,1.0,1.0
16.85484846,-0.1073268127,3.30198349,0.2417472839,3.312560303,1.0,1.0
16.86482646,-0.1249900818,2.913092194,0.743354187,3.009037071,1.0,1.0
16.87480446,-0.2022294617,2.536924438,1.23328537,2.828051479,1.0,1.0
16.88478246,-0.2157014465,2.213147736,1.680106201,2.786988852,1.0,1.0
16.89476046,-0.01781295776,1.678459625,2.370021515,2.904228985,1.0,1.0
16.90473846,0.5333409119,0.8934919739,3.442092133,3.595939194,1.0,1.0
16.91471646,1.553020477,-0.06885681152,4.863536224,5.10593757,1.0,1.0
16.92469446,2.837948456,-1.551224213,6.981332245,7.69410475,1.0,1.0
16.93467246,4.410727844,-3.205883331,10.27613068,11.63318829,1.0,1.0
16.94465046,7.157964935,-5.879922638,14.43792618,17.15411509,1.0,1.0
16.95462846,11.19222565,-10.28466293,19.25431046,24.53097384,1.0,1.0
16.96460546,16.16413651,-15.40102341,23.47328705,32.3954632,1.0,1.0
16.97458346,19.6783786,-19.02199356,26.1546611,37.85685038,1.0,1.0
16.98456146,21.98657867,-21.57044403,26.77167801,40.8095141,1.0,1.0
16.99453946,22.14435059,-20.21561142,26.06903915,39.73207785,1.0,1.0
17.00451746,20.1813327,-18.93113251,24.41812225,36.90418218,1.0,1.0
17.01449546,17.50879028,-16.96452209,23.17151459,33.63438472,1.0,1.0
17.02447346,14.44915283,-15.03982452,22.57395721,30.73366043,1.0,1.0
17.03445146,11.88348816,-13.49398911,22.12249603,28.50806664,1.0,1.0
17.04442946,10.1231488,-11.78753769,21.63525925,26.63660318,1.0,1.0
17.05440746,8.812474365,-9.979747009,20.11427216,24.12133908,1.0,1.0
17.06438546,8.108188934,-8.516090698,17.9199852,21.43344112,1.0,1.0
17.07436246,7.648494873,-7.041058044,15.38530609,18.56834984,1.0,1.0
17.08434046,7.21245163,-5.396128693,12.5704097,15.464568,1.0,1.0
17.09431846,6.678511963,-3.742667084,9.980046387,12.57821151,1.0,1.0
17.10429646,6.065237274,-2.37181778,7.978109436,10.2986821,1.0,1.0
17.11427446,5.385650482,-1.072819061,6.189179535,8.274183656,1.0,1.0
17.12425246,4.663701782,0.1739382935,4.67447937,6.605386153,1.0,1.0
17.13423046,3.986360321,0.9011260986,3.263214111,5.229881757,1.0,1.0
17.14420846,3.333717499,1.440604248,1.99385376,4.143002025,1.0,1.0
17.15418646,2.662064209,1.867666168,0.8731343079,3.367064937,1.0,1.0
17.16416446,2.277663574,1.565893707,0.1489402771,2.768024145,1.0,1.0
17.17414246,1.052910461,3.0165271,-0.9316625977,3.328070218,1.0,1.0
17.18411946,0.6210585022,2.444117432,-1.392703857,2.880806782,1.0,1.0
17.19409746,0.2231858826,2.3436763,-1.581461334,2.836133017,1.0,1.0
17.20407546,-0.2877017212,2.750230865,-1.785037994,3.29133753,1.0,1.0
17.21405346,-0.627046051,2.982248383,-1.753154297,3.515756271,1.0,1.0
17.22403146,-0.7343728638,3.103346558,-1.798060913,3.66102259,1.0,1.0
17.23400946,-0.7391629028,3.355871429,-1.794019318,3.876433949,1.0,1.0
17.24398746,-0.5063969421,3.359164581,-1.608255615,3.758578278,1.0,1.0
17.25396546,-0.2817141724,3.306773529,-1.506018219,3.644475946,1.0,1.0
17.26394346,0.07259902954,3.004102936,-1.083297272,3.194282086,1.0,1.0
17.27392146,0.4451742554,2.718347168,-0.7457492065,2.853722713,1.0,1.0
17.28389946,0.7075785828,2.481090546,-0.2661465454,2.593706177,1.0,1.0
17.29387646,1.01444046,2.151176605,0.004490661621,2.37837558,1.0,1.0
17.30385446,1.25199646,2.053130493,0.1004411316,2.406850302,1.0,1.0
17.31383246,1.260828094,1.972148895,0.2239343262,2.351426233,1.0,1.0
17.32381046,1.463656311,1.740281067,0.7312294006,2.388632334,1.0,1.0
17.33378846,1.511257324,1.644180908,1.310375061,2.589268692,1.0,1.0
17.34376646,1.546134796,1.326092377,2.381547546,3.133819158,1.0,1.0
17.35374446,1.628463593,0.8678952026,3.347339172,3.822278808,1.0,1.0
17.36372246,1.936073914,0.2366578674,4.398153992,4.811252195,1.0,1.0
17.37370046,2.640059967,-0.8322692871,5.636229401,6.27930495,1.0,1.0
17.38367846,3.383264465,-2.218087463,7.601342926,8.61085389,1.0,1.0
17.39365646,4.297263794,-3.708687744,10.58808197,12.01367224,1.0,1.0
17.40363346,6.074068909,-6.025569763,14.79822693,17.09354628,1.0,1.0
17.41361146,8.31341217,-8.907377014,19.44501389,22.94695518,1.0,1.0
17.42358946,11.19521942,-11.62826889,23.79541718,28.75363375,1.0,1.0
17.43356746,14.48717377,-14.00742142,27.13167938,33.79665789,1.0,1.0
17.44354546,16.87381073,-15.78317871,27.64211792,36.02666931,1.0,1.0
17.45352346,17.88660461,-15.5643338,27.34528519,36.19314484,1.0,1.0
17.46350146,16.87934921,-14.15037415,26.99860611,34.84351088,1.0,1.0
17.47347946,15.20059021,-13.24550583,26.30764297,33.14503653,1.0,1.0
17.48345746,12.68911285,-12.18301529,25.5840477,31.04807471,1.0,1.0
17.49343546,10.13662079,-10.98775085,24.63202744,28.8135129,1.0,1.0
17.50341346,8.066276093,-9.29986084,23.26477066,26.32112793,1.0,1.0
17.51339046,6.373296661,-7.224875793,20.8222998,22.94310157,1.0,1.0
17.52336846,5.302423553,-5.160368958,18.11547867,19.56823116,1.0,1.0
17.53334646,4.687951355,-3.506308594,15.05838593,16.15630139,1.0,1.0
17.54332446,4.252506866,-2.051483917,11.90189987,12.80420327,1.0,1.0
17.55330246,3.832630005,-0.8544232178,8.950786743,9.77423527,1.0,1.0
17.56328046,3.397185516,0.15328125,6.419550476,7.264639901,1.0,1.0
17.57325846,2.99302597,0.9638456726,4.260590057,5.29526492,1.0,1.0
17.58323646,2.565814362,1.589394836,2.404599609,3.858973771,1.0,1.0
17.59321446,2.125430145,2.015858002,0.9131011963,3.068369368,1.0,1.0
17.60319246,1.514999542,2.565814362,-0.3171903992,2.996537452,1.0,1.0
17.61317046,0.8878038025,3.103346558,-1.251697083,3.462037122,1.0,1.0
17.62314746,0.3257226562,3.402873688,-1.729054413,3.830831991,1.0,1.0
17.63312546,-0.06676116943,3.522175598,-1.937570801,4.020492334,1.0,1.0
17.64310346,-0.3086581421,3.548221436,-1.887874146,4.031031381,1.0,1.0
17.65308146,-0.4379891968,3.523522797,-1.819765778,3.989811389,1.0,1.0
17.66305946,-0.2962339783,3.338357849,-1.363215179,3.618113227,1.0,1.0
17.67303746,-0.2896476746,3.356470184,-1.158890076,3.562697585,1.0,1.0
17.68301654,-0.1290316772,3.325783997,-1.060993652,3.493307301,1.0,1.0
17.69299454,-0.1193019104,3.260669403,-1.048270111,3.427107837,1.0,1.0
17.70297254,-0.06406677246,3.382815399,-0.960402832,3.517089447,1.0,1.0
17.71295054,0.103434906,3.411106567,-0.8416996765,3.514940275,1.0,1.0
17.72292854,0.3701802063,3.400927734,-0.6518943787,3.482572199,1.0,1.0
17.73290554,0.5689668274,3.390000458,-0.4203259277,3.463018949,1.0,1.0
17.74288354,0.7797285461,3.175047455,0.0043409729,3.269391654,1.0,1.0
17.75286154,1.099313965,2.945275269,0.6018983459,3.200846641,1.0,1.0
17.76283954,1.260528717,2.803070984,1.369801483,3.364891631,1.0,1.0
17.77281754,1.365161133,2.462080078,2.202220459,3.574252115,1.0,1.0
17.78279554,1.444346466,2.092648315,3.318149872,4.180362695,1.0,1.0
17.79277354,1.607507172,1.745370483,4.709656219,5.273638131,1.0,1.0
17.80275154,2.300266571,0.890198822,6.55127655,7.000207474,1.0,1.0
17.81272954,3.606001282,-0.6707551575,8.802445221,9.536047378,1.0,1.0
17.82270754,5.150190125,-2.84453476,11.22590561,12.6742571,1.0,1.0
17.83268554,7.441924438,-5.157524872,14.00023636,16.67299974,1.0,1.0
17.84266254,10.18077896,-8.270301819,17.07633957,21.53247607,1.0,1.0
17.85264054,12.60379028,-11.47274231,19.79244141,26.11934307,1.0,1.0
17.86261854,14.40364746,-13.58859238,21.40219391,29.15765435,1.0,1.0
17.87259654,15.53738983,-14.26458664,22.66601578,30.96186664,1.0,1.0
17.88257454,15.70129898,-14.20770493,23.86098083,31.90197604,1.0,1.0
17.89255254,14.93174927,-13.48710342,24.45180222,31.66622375,1.0,1.0
17.90253054,13.41435471,-11.95803314,24.19478668,30.13846664,1.0,1.0
17.91250854,11.75595337,-10.46443909,23.34365662,28.15374272,1.0,1.0
17.92248654,10.06791367,-9.503287811,22.26125748,26.21524269,1.0,1.0
17.93246454,8.508755951,-8.583300934,21.25325363,24.44939207,1.0,1.0
17.94244254,7.140151978,-7.338489532,20.05200165,22.51483886,1.0,1.0
17.95241954,6.264023895,-6.210585022,18.41335922,20.41717805,1.0,1.0
17.96239754,5.62455368,-4.89916214,16.18928421,17.82499136,1.0,1.0
17.97237554,5.314099274,-3.580554199,13.60670471,15.04002768,1.0,1.0
17.98235354,5.316643982,-2.507136383,10.89000412,12.37516165,1.0,1.0
17.99233154,5.419330444,-1.490001526,8.03499115,9.805627455,1.0,1.0
18.00230954,5.437143402,-0.6762936401,5.312602386,7.631752458,1.0,1.0
18.01228754,5.24898468,-0.08083190918,2.783312073,5.941817909,1.0,1.0
18.02226554,4.774172058,0.5334906006,0.6360273743,4.845808692,1.0,1.0
18.03224354,4.102818146,0.9586065674,-0.9842033386,4.326742366,1.0,1.0
18.04222154,3.392844543,1.30229187,-2.035766602,4.165537644,1.0,1.0
18.05219954,2.750380554,1.566193085,-2.453847198,4.004862051,1.0,1.0
18.06217654,2.299518127,1.766626282,-2.540067902,3.854957455,1.0,1.0
18.07215454,1.916764069,1.961221619,-2.385439453,3.634652131,1.0,1.0
18.08213254,1.528770905,1.979034576,-1.827848969,3.097539376,1.0,1.0
18.09211054,1.244661713,2.053878937,-1.180295563,2.675948258,1.0,1.0
18.10208854,1.089135132,2.08740921,-0.5060975647,2.408241535,1.0,1.0
18.11206654,1.022373962,2.088007965,0.1489402771,2.329637094,1.0,1.0
18.12204454,0.9473799133,2.118095398,0.5903723145,2.39424232,1.0,1.0
18.13202254,0.922381897,2.20087326,0.9877958679,2.582706361,1.0,1.0
18.14200054,0.8084687805,2.436333618,1.280886383,2.868799957,1.0,1.0
18.15197854,0.6379733276,2.793790283,1.438358917,3.206423317,1.0,1.0
18.16195654,0.4998106384,3.071762238,1.517394562,3.462372044,1.0,1.0
18.17193354,0.5228627014,3.228336639,1.547781372,3.618172196,1.0,1.0
18.18191154,0.7110214233,3.215014343,1.800306244,3.752728509,1.0,1.0
18.19188954,0.8584648132,3.248694305,2.056273956,3.939446549,1.0,1.0
18.20186754,1.010548553,3.17564621,2.371967468,4.090497146,1.0,1.0
18.21184554,1.296004944,2.98838562,2.673739929,4.214138422,1.0,1.0
18.22182354,1.61708725,2.819237366,2.891387329,4.350079446,1.0,1.0
18.23180154,2.081421661,2.326911163,3.466641083,4.665236553,1.0,1.0
18.24177954,3.039429474,1.221160583,4.575984192,5.627521304,1.0,1.0
18.25175754,4.451742554,-0.5165757751,6.502777405,7.897529758,1.0,1.0
18.26173554,6.294261017,-3.098107452,9.320068817,11.6653193,1.0,1.0
18.27171254,8.847351837,-6.076763306,12.96873138,16.83421161,1.0,1.0
18.28169054,11.78723831,-9.517358551,16.73400146,22.57312353,1.0,1.0
18.29166854,14.69194794,-12.67504211,19.76010864,27.69425789,1.0,1.0
18.30164654,17.24548782,-15.01527557,21.64903061,31.48882146,1.0,1.0
18.31162454,18.85224655,-16.26891861,22.81315979,33.77166227,1.0,1.0
18.32160254,19.19817719,-16.38387955,23.12645828,34.2320696,1.0,1.0
18.33158054,18.00246368,-15.47990936,23.00191727,33.05759354,1.0,1.0
18.34155854,15.67525314,-13.65101257,21.9623291,30.23917335,1.0,1.0
18.35153654,13.11213318,-11.82765427,20.65165466,27.17190244,1.0,1.0
18.36151454,10.75663147,-10.37836807,19.46013245,24.53797871,1.0,1.0
18.37149254,8.523874512,-8.718918915,18.22549988,21.92817433,1.0,1.0
18.38147054,7.040608978,-7.246580658,16.96527054,19.74597454,1.0,1.0
18.39144754,6.456822968,-6.400240631,15.46119827,17.9360613,1.0,1.0
18.40142554,6.180048523,-5.457501068,13.64083374,15.93893543,1.0,1.0
18.41140354,5.959407349,-4.209246826,11.48456772,13.60616002,1.0,1.0
18.42138154,5.858068085,-2.958447876,9.351054382,11.42416708,1.0,1.0
18.43135954,5.893394623,-1.939516754,7.392227783,9.650847477,1.0,1.0
18.44133754,5.726192322,-0.8204438782,5.496869202,7.979848224,1.0,1.0
18.45131554,5.420228577,0.1567240906,3.896696777,6.677401144,1.0,1.0
18.46129354,5.013374634,0.9021739197,2.242337036,5.56560135,1.0,1.0
18.47127154,4.38782547,1.61828476,0.8042774963,4.745389363,1.0,1.0
18.48124954,3.653602295,2.077080688,-0.3911366272,4.220907696,1.0,1.0
18.49122654,2.917433167,2.285896454,-1.11622879,3.870750004,1.0,1.0
18.50120454,2.105371857,2.56716156,-1.371747437,3.592297337,1.0,1.0
18.51118254,1.304387512,2.734064484,-1.33627121,3.310914697,1.0,1.0
18.52116054,0.5881269836,2.973267059,-1.106199646,3.226435806,1.0,1.0
18.53113854,0.0505947876,3.18732193,-0.8936416626,3.310615704,1.0,1.0
18.54111654,-0.3695814514,3.521427155,-0.7673043823,3.622953998,1.0,1.0
18.55109454,-0.5800437927,3.666774902,-0.6767427063,3.773548685,1.0,1.0
18.56107254,-0.5760021973,3.641178131,-0.5592370605,3.728632833,1.0,1.0
18.57105054,-0.5757028198,3.719764709,-0.5533992004,3.804514937,1.0,1.0
18.58102854,-0.5260061646,3.788322144,-0.5917195129,3.870167843,1.0,1.0
18.59100654,-0.3381468201,3.640429688,-0.4834945679,3.687931477,1.0,1.0
18.60098354,-0.03143463135,3.521726532,-0.2769241333,3.532737307,1.0,1.0
18.61096154,0.458795929,3.213218079,0.1615141296,3.249823217,1.0,1.0
18.62093954,1.083596649,2.902314606,0.563278656,3.148792564,1.0,1.0
18.63091754,1.667083282,2.573598175,0.9343569946,3.205557242,1.0,1.0
18.64089554,2.239343262,2.122436371,1.413061523,3.393543467,1.0,1.0
18.65087354,2.935395813,1.567540283,2.266736298,4.026391009,1.0,1.0
18.66085154,3.886068878,0.7581733704,3.742667084,5.448294695,1.0,1.0
18.67082954,4.820874939,-0.4978646851,6.172414398,7.847764263,1.0,1.0
18.68080754,6.10789856,-1.986369324,9.673633575,11.61168698,1.0,1.0
18.69078817,7.784711609,-3.772155762,13.91880569,16.38792378,1.0,1.0
18.70076617,9.654922485,-5.867199097,18.14796112,21.37732552,1.0,1.0
18.71074317,11.63829803,-8.00924469,21.92445786,26.08217464,1.0,1.0
18.72072117,13.41779755,-9.582622833,24.41123657,29.45797723,1.0,1.0
18.73069917,14.39556427,-10.2147583,25.27643738,30.82972339,1.0,1.0
18.74067717,14.51097427,-10.43614792,24.56182343,30.37704277,1.0,1.0
18.75065517,13.51494553,-10.15278717,23.61040192,29.03762936,1.0,1.0
18.76063317,11.62796951,-9.003926239,22.74071045,27.08173322,1.0,1.0
18.77061117,9.722731476,-7.796387329,22.08657074,25.36004278,1.0,1.0
18.78058917,8.205187225,-6.734645233,21.09024261,23.61099061,1.0,1.0
18.79056717,7.363936615,-5.907615051,19.88195526,22.00953482,1.0,1.0
18.80054517,7.120692444,-5.403313751,18.45527206,20.50602661,1.0,1.0
18.81052317,7.207811279,-4.873265991,17.01347031,19.10914537,1.0,1.0
18.82050017,7.452552338,-4.355642395,15.79859665,18.00299456,1.0,1.0
18.83047817,7.655979309,-3.51723587,14.79478409,17.02558673,1.0,1.0
18.84045617,7.953410797,-2.632425842,13.649366,16.01535517,1.0,1.0
18.85043417,8.151299286,-1.769320679,12.16400482,14.74914198,1.0,1.0
18.86041217,7.965385895,-0.8187973022,10.37208115,13.10335334,1.0,1.0
18.87039017,7.473508759,0.02290237427,8.463849335,11.29117369,1.0,1.0
18.88036817,6.676865387,0.7496411133,6.396947479,9.277037795,1.0,1.0
18.89034617,5.732030182,1.238524475,4.45338913,7.363612403,1.0,1.0
18.90032417,4.791386261,1.511257324,2.848875732,5.775584294,1.0,1.0
18.91030217,3.917353821,1.727407837,1.490749969,4.533424121,1.0,1.0
18.92028017,3.189118195,1.807640991,0.3454815674,3.682037252,1.0,1.0
18.93025717,2.51686615,1.862876129,-0.7102729797,3.210827058,1.0,1.0
18.94023517,1.818418579,1.94580368,-1.426084442,3.021012236,1.0,1.0
18.95021317,1.217867432,1.955383759,-1.792073364,2.918604747,1.0,1.0
18.96019117,0.7650590515,1.939516754,-1.834435272,2.777083607,1.0,1.0
18.97016917,0.2918930054,1.919159088,-1.61708725,2.526528113,1.0,1.0
18.98014717,-0.05852828979,1.925595703,-1.272204437,2.308646466,1.0,1.0
18.99012517,-0.4114942932,1.957479401,-0.9048683167,2.195413361,1.0,1.0
19.00010317,-0.6484515381,1.999092865,-0.503253479,2.161047372,1.0,1.0
19.01008117,-0.8029302979,2.059716797,-0.1279838562,2.214387097,1.0,1.0
19.02005917,-0.8092172241,2.120340729,0.07948471069,2.270901834,1.0,1.0
19.03003717,-0.6801855469,2.096989288,0.1466949463,2.209419802,1.0,1.0
19.04001417,-0.4752616882,2.058968353,0.1077758789,2.115854435,1.0,1.0
19.04999217,-0.1407073975,1.974094849,0.02110610962,1.97921563,1.0,1.0
19.05997017,0.3025209045,1.641037445,-0.07933502197,1.670573805,1.0,1.0
19.06994817,0.6351292419,1.352736969,-0.1541793823,1.502350739,1.0,1.0
19.07992617,0.7415579224,1.301543427,-0.2424957275,1.517474092,1.0,1.0
19.08990417,1.020128632,1.142124939,-0.2535726929,1.552227725,1.0,1.0
19.09988217,1.312620392,0.9126521301,-0.4246669006,1.654160869,1.0,1.0
19.10986017,1.579216003,0.733175354,-0.4007167053,1.786628994,1.0,1.0
19.11983817,1.903890839,0.4584965515,-0.0592767334,1.959217483,1.0,1.0
19.12981617,2.352657623,-0.1730401611,0.3291654968,2.381867065,1.0,1.0
19.13979417,3.431164856,-1.850751343,1.270258484,4.100210899,1.0,1.0
19.14977117,5.341192932,-4.719086609,2.631976776,7.597724798,1.0,1.0
19.15974917,7.797135773,-8.021818542,4.264781342,11.97218689,1.0,1.0
19.16972717,11.40732834,-12.40021362,7.121590576,18.29233419,1.0,1.0
19.17970517,14.9565976,-17.19489304,11.16483261,25.37750274,1.0,1.0
19.18968317,17.61357239,-19.99272491,15.54502396,30.84792945,1.0,1.0
19.19966117,20.0632283,-21.0213858,19.95410522,35.25050505,1.0,1.0
19.20963917,21.40114609,-20.5290596,23.35832611,37.75000319,1.0,1.0
19.21961717,20.33895493,-17.8111615,24.1453894,36.24790188,1.0,1.0
19.22959517,19.03037613,-15.3520752,23.0890361,33.62952596,1.0,1.0
19.23957317,18.55227036,-14.59375214,22.09779739,32.33383656,1.0,1.0
19.24955017,17.3864946,-13.89680145,20.97647919,30.58470147,1.0,1.0
19.25952817,15.66058365,-12.20921082,19.46641937,27.80755639,1.0,1.0
19.26950617,14.19019135,-10.37327866,18.20813599,25.30815395,1.0,1.0
19.27948417,12.9486731,-8.772507477,16.44016251,22.69149545,1.0,1.0
19.28946217,11.71748337,-7.5154216,14.15456543,19.85277565,1.0,1.0
19.29944017,10.5810466,-6.388864288,11.46929947,16.86181972,1.0,1.0
19.30941817,9.671687622,-5.129982147,8.715625763,13.99358391,1.0,1.0
19.31939617,8.821455688,-4.044439545,5.929020538,11.37228457,1.0,1.0
19.32937417,7.896080017,-3.04691391,3.526516571,9.168864877,1.0,1.0
19.33935217,6.921756134,-1.88622757,1.661993866,7.364155487,1.0,1.0
19.34933017,5.94054657,-0.7822732544,0.1576222229,5.993904383,1.0,1.0
19.35930717,5.197042694,0.1613644409,-0.9873468018,5.292461143,1.0,1.0
19.36928517,4.602479095,0.8988807678,-1.716630249,4.993758091,1.0,1.0
19.37926317,4.116290131,1.321601715,-2.236199799,4.867346821,1.0,1.0
19.38924117,3.796555023,1.582509155,-2.563718719,4.846732811,1.0,1.0
19.39921917,3.474275208,1.765728149,-2.455643463,4.606361789,1.0,1.0
19.40919717,3.134481812,1.852547607,-2.38693634,4.353662132,1.0,1.0
19.41917517,2.757116547,1.817221069,-2.265838165,4.004748014,1.0,1.0
19.42915317,2.263143768,1.803300018,-2.204316101,3.6376806,1.0,1.0
19.43913117,1.767823792,1.906435547,-2.045047302,3.307856696,1.0,1.0
19.44910917,1.289119263,1.972298584,-1.839973755,2.989530665,1.0,1.0
19.45908717,0.8530760193,2.052681427,-1.570534058,2.721730509,1.0,1.0
19.46906417,0.6360273743,2.119891663,-1.198557587,2.516944928,1.0,1.0
19.47904217,0.596509552,2.014361115,-0.7976911926,2.247172798,1.0,1.0
19.48902017,0.8217910767,1.756148071,-0.264200592,1.956833814,1.0,1.0
19.49899817,1.341660004,1.192420349,0.1691482544,1.802922346,1.0,1.0
19.50897617,2.19159256,0.2885998535,0.6845265198,2.314075275,1.0,1.0
19.51895417,3.232677612,-0.7484436035,1.339564362,3.578380227,1.0,1.0
19.52893217,4.504732361,-1.920206909,1.751956787,5.200880772,1.0,1.0
19.53891017,5.965394897,-3.1147229,2.072440338,7.041480241,1.0,1.0
19.54888817,7.558981018,-4.284989319,2.824476471,9.136574568,1.0,1.0
19.55886617,9.070238342,-5.238656158,3.562591553,11.0636703,1.0,1.0
19.56884317,9.962532806,-5.280269623,4.196822662,12.03106927,1.0,1.0
19.57882117,10.48225204,-4.755011902,4.533173218,12.37082881,1.0,1.0
19.58879917,11.12321915,-4.399351501,4.637506256,12.82913723,1.0,1.0
19.59877717,12.10382996,-4.511019287,4.703219604,13.74671849,1.0,1.0
19.60875517,13.44264587,-5.240751801,4.716691589,15.1795055,1.0,1.0
19.61873317,14.84927078,-6.421346741,4.555626526,16.80738736,1.0,1.0
19.62871117,16.29301849,-7.906707916,4.624483337,18.69129016,1.0,1.0
19.63868917,17.79200134,-9.489217072,4.50712738,20.66191544,1.0,1.0
19.64866717,19.25820236,-10.89733887,4.482428741,22.57703524,1.0,1.0
19.65864517,20.45780777,-11.86732178,4.423900452,24.06088361,1.0,1.0
19.66862317,21.22481277,-12.36054611,4.029470673,24.89000626,1.0,1.0
19.67860017,21.33573212,-12.46592697,3.406017151,24.94421282,1.0,1.0
19.68857471,20.9245372,-12.28944397,2.643502808,24.41013718,1.0,1.0
19.69855271,20.08418472,-11.90594147,1.835932159,23.42000352,1.0,1.0
19.70853071,18.71842484,-11.40672958,1.052611084,21.94540722,1.0,1.0
19.71850871,16.85839279,-10.70199509,0.3215313721,19.97101622,1.0,1.0
19.72848671,14.59479996,-9.490115204,0.033230896,17.40895105,1.0,1.0
19.73846471,12.13496521,-7.958051147,0.1115180969,14.51207756,1.0,1.0
19.74844271,9.928852844,-6.581214294,0.2460882568,11.91448949,1.0,1.0
19.75842071,8.177644501,-5.461392975,0.4543052673,9.844139174,1.0,1.0
19.76839871,6.691085815,-4.543202362,0.8405021667,8.131282862,1.0,1.0
19.77837671,5.493126984,-3.672762451,1.113534393,6.701013873,1.0,1.0
19.78835371,4.515060883,-2.874173126,1.252445526,5.496841432,1.0,1.0
19.79833171,3.642824707,-2.226769409,1.212328949,4.438289685,1.0,1.0
19.80830971,2.988984375,-1.767225037,0.8855584717,3.583479556,1.0,1.0
19.81828771,2.512375488,-1.396895142,0.5846841431,2.93346249,1.0,1.0
19.82826571,2.12842392,-1.062789917,0.3986210632,2.412179417,1.0,1.0
19.83824371,1.716779938,-0.7806266785,0.1019380188,1.888677507,1.0,1.0
19.84822171,1.331181793,-0.580941925,-0.2486329651,1.473552455,1.0,1.0
19.85819971,1.043480072,-0.4785548401,-0.5054988098,1.254350207,1.0,1.0
19.86817771,0.822689209,-0.4028123474,-0.7481442261,1.182706686,1.0,1.0
19.87815571,0.6442602539,-0.2613565063,-0.9633966064,1.188070503,1.0,1.0
19.88813271,0.5310955811,-0.1498384094,-1.113684082,1.242902369,1.0,1.0
19.89811071,0.5593867493,-0.1169068909,-1.192420349,1.322288564,1.0,1.0
19.90808871,0.7548802185,-0.2942880249,-1.231938171,1.474490164,1.0,1.0
19.91806671,1.152752838,-0.6026467896,-1.189875641,1.762902805,1.0,1.0
19.92804471,1.782193909,-0.9572593689,-0.8222401428,2.183721475,1.0,1.0
19.93802271,2.730022888,-1.525028687,-0.2351609802,3.135927,1.0,1.0
19.94800071,4.007017365,-2.443219299,0.3347039795,4.705054246,1.0,1.0
19.95797871,5.488935699,-3.669918365,0.8024812317,6.651367683,1.0,1.0
19.96795671,6.980583801,-4.793481903,1.248852997,8.55953578,1.0,1.0
19.97793471,8.149503021,-5.472020874,1.827998657,9.984938209,1.0,1.0
19.98791271,8.828491058,-5.49118103,2.415975952,10.67390572,1.0,1.0
19.99788971,9.047036591,-5.113366699,2.725981293,10.74366623,1.0,1.0
280.0024968,2.456092529,3.812571716,-2.157762909,5.02235347,1.0,2.0
280.0124747,2.342329102,3.138074341,-1.372046814,4.149280498,1.0,2.0
280.0224538,2.24188797,2.364483032,-0.7536827087,3.344380257,1.0,2.0
280.0324318,1.924697571,1.975591736,-0.190254364,2.76470978,1.0,2.0
280.0424108,1.757345581,1.71184021,0.08846603394,2.454890351,1.0,2.0
280.0523888,1.731599121,1.293609924,0.04011657715,2.161821337,1.0,2.0
280.0623678,2.082619171,0.7066804504,-0.390687561,2.233682305,1.0,2.0
280.0723457,2.718197479,-0.6330335999,-1.013093262,2.969122266,1.0,2.0
280.0823247,4.077371063,-3.142115936,-1.727258148,5.429665556,1.0,2.0
280.0923028,6.37344635,-7.574249268,-2.624342651,10.24095917,1.0,2.0
280.1022807,9.320218506,-13.78947464,-3.805386658,17.07328473,1.0,2.0
280.1122598,13.91581192,-21.56101364,-5.387297058,26.22117656,1.0,2.0
280.1222378,22.32532425,-31.19363251,-6.956783295,38.98537733,1.0,2.0
280.1322168,32.37392807,-41.47590042,-6.562353516,53.02250483,1.0,2.0
280.1421948,40.58136063,-48.26952301,-4.501738586,63.22230091,1.0,2.0
280.1521738,44.30846008,-45.92719391,-3.335663452,63.90362608,1.0,2.0
280.1621518,40.38272369,-32.84439972,-0.7384144592,52.05827717,1.0,2.0
280.1721307,32.58573761,-15.86401062,3.93262207,36.45493992,1.0,2.0
280.1821088,27.94987793,-9.472901001,4.738097076,29.88948132,1.0,2.0
280.1920868,25.30742294,-18.00815186,3.136128387,31.21849597,1.0,2.0
280.2020657,20.04885818,-22.21560242,4.358785858,30.24051454,1.0,2.0
280.2120438,12.23405914,-17.79095352,5.798042908,22.35637564,1.0,2.0
280.2220228,7.660020905,-14.86843094,5.611530762,17.64186601,1.0,2.0
280.2320007,5.152136078,-11.52004395,3.884272614,13.20391958,1.0,2.0
280.2419798,2.155517578,-6.369105377,0.4037104797,6.736077604,1.0,2.0
280.2519578,0.09580078125,-3.654350739,-4.117637329,5.506214152,1.0,2.0
280.2619368,0.3047662354,-3.680845642,-6.098917236,7.130098075,1.0,2.0
280.2719148,-0.9559121704,-2.194286957,-7.989785156,8.340583323,1.0,2.0
280.2818928,-3.423081665,0.1453477478,-9.278155975,9.890540549,1.0,2.0
280.2918717,-5.659131775,0.7628137207,-10.31729507,11.79212597,1.0,2.0
280.3018498,-7.174580383,0.3477268982,-11.26272903,13.35831512,1.0,2.0
280.3118288,-7.553741913,-0.005987548828,-11.19207596,13.50265222,1.0,2.0
280.3218067,-7.200925598,0.07050338745,-10.06836273,12.37861981,1.0,2.0
280.3317892,-6.198759613,0.6282435608,-8.625363464,10.64031041,1.0,2.0
280.3417672,-4.678670654,1.187779999,-7.063361664,8.555224042,1.0,2.0
280.3517462,-2.926264801,1.700912933,-5.70882843,6.636780284,1.0,2.0
280.3617242,-1.182840271,2.134411469,-4.600533142,5.20766057,1.0,2.0
280.3717022,0.1743873596,2.46073288,-3.750001831,4.48866695,1.0,2.0
280.3816812,1.059047699,2.888094177,-3.233875122,4.463251988,1.0,2.0
280.3916592,1.388063507,3.309916992,-2.83166153,4.571714975,1.0,2.0
280.4016382,1.34330658,3.424428864,-2.595452728,4.501950741,1.0,2.0
280.4116162,1.001866608,3.267405396,-2.409090271,4.181314465,1.0,2.0
280.4215952,0.6596781921,3.07385788,-2.116299133,3.78978886,1.0,2.0
280.4315732,0.3005749512,2.838098145,-1.835932159,3.393492784,1.0,2.0
280.4415522,0.1161584473,2.44785965,-1.488055573,2.867022678,1.0,2.0
280.4515302,0.02754272461,2.086960144,-1.038240967,2.331116803,1.0,2.0
280.4615082,-0.05463638306,1.982776794,-0.5870791626,2.06858669,1.0,2.0
280.4714872,0.006885681152,1.87799469,-0.2056723022,1.889235974,1.0,2.0
280.4814652,0.5795947266,1.448687439,-0.01242416382,1.560378064,1.0,2.0
280.4914442,1.404978333,0.6596781921,0.05987548828,1.553294726,1.0,2.0
280.5014222,2.860401764,-0.9752220154,0.0983454895,3.023677904,1.0,2.0
280.5114012,6.227350159,-5.637277222,-0.3393443298,8.40677935,1.0,2.0
280.5213792,12.37207214,-14.61875015,-0.8933422852,19.17222172,1.0,2.0
280.5313582,19.30161209,-26.35913589,-2.473755798,32.76393966,1.0,2.0
280.5413362,27.66172714,-38.74872162,-3.262016602,47.72080603,1.0,2.0
280.5513152,33.85629547,-50.0253717,-1.799408112,60.43198182,1.0,2.0
280.5612932,36.05028305,-50.75734955,-0.6749464417,62.2606376,1.0,2.0
280.5712712,33.24751144,-43.37066025,3.552263031,54.763398,1.0,2.0
280.5812502,25.48106186,-31.35574539,8.536148987,41.29567922,1.0,2.0
280.5912282,17.37616608,-17.01496719,11.90594147,27.07751278,1.0,2.0
280.6012072,14.76888794,-20.07864624,11.02532272,27.25490464,1.0,2.0
280.6111852,14.81843491,-26.58591431,8.976832581,31.7329541,1.0,2.0
280.6211642,10.35516632,-19.88569748,9.134604492,24.20973839,1.0,2.0
280.6311422,7.225025482,-13.46839233,6.577472076,16.63916236,1.0,2.0
280.6411202,7.657176819,-10.85856949,2.634371796,13.54550859,1.0,2.0
280.6510992,8.279432831,-6.892866211,-1.356030121,10.85815041,1.0,2.0
280.6610772,8.506660309,-2.192939758,-7.421716461,11.50017955,1.0,2.0
280.6710562,9.787846069,0.7514373779,-13.97389114,17.07735994,1.0,2.0
280.6810342,11.69952072,2.346819763,-15.55729843,19.60652653,1.0,2.0
280.6910132,11.389216,4.144581299,-14.76424759,19.10169632,1.0,2.0
280.7009912,9.090596008,5.512137451,-12.09005859,16.09944446,1.0,2.0
280.7109702,6.833589478,5.054239655,-8.561147003,12.06385186,1.0,2.0
280.7209482,5.129383392,3.285966797,-6.320306854,8.778065305,1.0,2.0
280.7309262,3.592828674,2.093097382,-4.570894775,6.179203313,1.0,2.0
280.7409052,2.8970755,3.503614197,-5.229225769,6.929152981,1.0,2.0
280.7508832,2.065404968,4.827910309,-5.348527679,7.495422868,1.0,2.0
280.7608622,0.7479945374,5.191953278,-5.598507843,7.671972675,1.0,2.0
280.7708402,0.5554948425,5.856571198,-4.998106384,7.719395581,1.0,2.0
280.7808192,0.2342628479,6.167624359,-4.792134705,7.814027409,1.0,2.0
280.7907972,0.2534230042,5.620661774,-4.365821228,7.121548777,1.0,2.0
280.8007762,0.5294490051,4.843328247,-3.802692261,6.180502665,1.0,2.0
280.8107542,0.5589376831,4.295916595,-2.753074951,5.132906819,1.0,2.0
280.8207332,0.7469467163,3.846401367,-1.595382385,4.230600174,1.0,2.0
280.8307112,1.186582489,3.326831818,-0.9527687073,3.658354296,1.0,2.0
280.8406892,1.738933868,3.029999084,-0.8214916992,3.588820706,1.0,2.0
280.8506682,2.11555069,2.72164032,-0.798589325,3.538449613,1.0,2.0
280.8606462,2.303709412,2.171085205,-0.7261399841,3.24776343,1.0,2.0
280.8706252,2.24652832,1.756148071,-0.6225553894,2.918650502,1.0,2.0
280.8806032,2.190993805,1.420545959,-0.5566923523,2.669889708,1.0,2.0
280.8905822,2.250420227,0.9481283569,-0.4180805969,2.477524968,1.0,2.0
280.9005602,2.798730011,0.02559677124,-0.2781216431,2.8126316,1.0,2.0
280.9105392,3.577261047,-1.679357758,-0.1930984497,3.956554826,1.0,2.0
280.9205172,5.052742767,-4.435725861,-0.06481521606,6.723843722,1.0,2.0
280.9304962,7.372319183,-9.060957642,-0.1312770081,11.68200656,1.0,2.0
280.9404742,10.66502197,-15.8774826,-0.6167175293,19.13680977,1.0,2.0
280.9504522,16.65316956,-25.51324493,-2.033670959,30.5350543,1.0,2.0
280.9604312,24.73680954,-39.23850311,-3.014431458,46.48286426,1.0,2.0
280.9704092,31.88339813,-51.93659729,-1.635049896,60.96420755,1.0,2.0
280.9803882,34.4013121,-49.08682343,0.005837860107,59.9413592,1.0,2.0
280.9903662,30.04058029,-37.18342667,3.425027618,47.92467524,1.0,2.0
281.0003452,24.43623459,-25.72610229,9.289981384,36.67786327,1.0,2.0
281.0103232,19.83510269,-14.84672607,11.59458893,27.35490936,1.0,2.0
281.0203022,18.28777039,-14.43807587,9.417815552,25.13157039,1.0,2.0
281.0302802,18.90164383,-22.63802399,6.447691956,30.18815995,1.0,2.0
281.0402582,15.85383179,-21.53960815,5.818101196,27.37058646,1.0,2.0
281.0502372,9.826316071,-14.26473633,5.124743042,18.06383628,1.0,2.0
281.0602152,5.96749054,-10.57760376,3.291056213,12.58283337,1.0,2.0
281.0701942,3.159779205,-8.465495911,0.033230896,9.036035078,1.0,2.0
281.0801722,1.117725677,-5.351521454,-3.331921234,6.402327051,1.0,2.0
281.0901512,0.8400531006,-3.125949554,-5.434598694,6.325512848,1.0,2.0
281.1001292,1.49539032,-2.64559845,-7.113956451,7.735874854,1.0,2.0
281.1101082,1.817221069,-1.687440948,-8.007298737,8.382516473,1.0,2.0
281.1200862,1.366508331,0.3029699707,-8.193661194,8.312353432,1.0,2.0
281.1300642,0.4170327759,2.095342712,-7.723937988,8.013962532,1.0,2.0
281.1400432,-0.6837780762,2.651885376,-7.298522644,7.795414119,1.0,2.0
281.1500212,-1.155297546,2.211800537,-7.01471283,7.445332103,1.0,2.0
281.1600002,-1.136287079,1.656006317,-6.540049896,6.841473372,1.0,2.0
281.1699782,-0.9216334534,1.341809692,-5.8047789,6.028707951,1.0,2.0
281.1799572,-0.7773335266,1.382075958,-4.735552368,4.993980136,1.0,2.0
281.1899352,-0.6468049622,1.723964996,-3.466341705,3.925039718,1.0,2.0
281.1999142,-0.4161346436,2.17288147,-2.514171753,3.348976191,1.0,2.0
281.2098922,-0.1651066589,2.514022064,-1.906435547,3.1594404,1.0,2.0
281.2198712,0.03053649902,2.731220398,-1.61708725,3.174187851,1.0,2.0
281.2298492,0.1230441284,2.834355927,-1.674717407,3.294448629,1.0,2.0
281.2398272,-0.005987548828,2.89827301,-1.893412628,3.461940738,1.0,2.0
281.2498062,-0.02874023438,2.938389587,-2.181862793,3.659984237,1.0,2.0
281.2597842,0.003143463135,2.680475922,-2.520758057,3.679562777,1.0,2.0
281.2697632,-0.04864883423,2.41507782,-2.774779816,3.678908889,1.0,2.0
281.2797412,-0.0005987548828,2.266287231,-2.736609192,3.55317999,1.0,2.0
281.2897202,0.1618135071,2.016905823,-2.470462646,3.193317773,1.0,2.0
281.2996982,0.5463638306,1.59014328,-2.254312134,2.812293065,1.0,2.0
281.3096772,0.9714797974,1.061592407,-2.034718781,2.492154079,1.0,2.0
281.3196552,1.533411255,0.3694317627,-1.70944519,2.325947713,1.0,2.0
281.3296294,2.551294556,-1.074914703,-1.305285645,3.060770515,1.0,2.0
281.3396084,4.808001709,-4.647984467,-0.7054829407,6.724458805,1.0,2.0
281.3495864,9.169182587,-11.77661041,-0.4846920776,14.93309708,1.0,2.0
281.3595654,14.43837524,-21.26043869,-1.644779663,25.75224715,1.0,2.0
281.3695434,20.29509613,-31.2879364,-2.485730896,37.37652672,1.0,2.0
281.3795224,26.92451019,-42.79914871,-1.433419189,50.58409899,1.0,2.0
281.3895004,32.26585281,-51.26748871,0.2821632385,60.57656537,1.0,2.0
281.3994794,33.80899384,-50.9411673,3.425925751,61.23550896,1.0,2.0
281.4094574,28.38232864,-43.09717896,7.678881683,52.17172258,1.0,2.0
281.4194364,18.88712402,-27.31953873,11.11528564,35.02328119,1.0,2.0
281.4294144,12.39826767,-17.5310939,14.00143387,25.63389251,1.0,2.0
281.4393924,11.82466049,-24.08596298,11.67766617,29.26301583,1.0,2.0
281.4493714,10.86575455,-22.44986526,10.36130356,27.00773378,1.0,2.0
281.4593494,8.379275208,-15.46988022,8.665330353,19.61166482,1.0,2.0
281.4693284,7.854466553,-12.3740181,4.19128418,15.2438785,1.0,2.0
281.4793064,7.896379395,-9.401798859,0.4090992737,12.28470559,1.0,2.0
281.4892854,7.885901184,-5.287155304,-2.954705658,9.943426684,1.0,2.0
281.4992634,7.76704834,-1.016386414,-7.200177155,10.63967257,1.0,2.0
281.5092424,8.701854401,1.811083832,-10.84584595,14.02264843,1.0,2.0
281.5192204,10.38151154,2.309397583,-11.72137527,15.82718349,1.0,2.0
281.5291984,10.45246399,2.734812927,-10.44063858,15.02465105,1.0,2.0
281.5391774,8.755293274,3.750899963,-7.998916168,12.43812971,1.0,2.0
281.5491554,6.712191925,3.931723938,-4.946613464,9.21851172,1.0,2.0
281.5591344,4.646487579,3.210823059,-2.952011261,6.372880199,1.0,2.0
281.5691124,3.557801514,3.837719421,-3.013533325,6.038826465,1.0,2.0
281.5790914,3.494632874,5.087320862,-3.531905365,7.111093304,1.0,2.0
281.5890694,2.322270813,5.238207092,-3.984564056,6.979147942,1.0,2.0
281.5990484,1.910028076,5.855673065,-3.678300934,7.1740513,1.0,2.0
281.6090264,1.64986908,6.608457642,-3.304079132,7.570384356,1.0,2.0
281.6190054,1.339414673,6.386918335,-3.169508972,7.254829054,1.0,2.0
281.6289834,1.247056732,5.76855423,-2.951861572,6.598852562,1.0,2.0
281.6389614,1.323098602,5.273383942,-2.590213623,6.022323034,1.0,2.0
281.6489404,1.412612457,4.749772797,-1.977238312,5.335286957,1.0,2.0
281.6589184,1.435963898,4.274810486,-1.224154358,4.672745542,1.0,2.0
281.6688974,1.599423981,3.755240936,-0.7702981567,4.153715302,1.0,2.0
281.6788754,1.749861145,3.228037262,-0.4686753845,3.701607111,1.0,2.0
281.6888544,1.762584686,2.853965149,-0.2080673218,3.360820414,1.0,2.0
281.6988324,1.479972382,2.565215607,-0.1489402771,2.965271078,1.0,2.0
281.7088114,1.354682922,2.250420227,-0.2139051819,2.63539607,1.0,2.0
281.7187894,1.540746002,1.732197876,-0.40251297,2.352960777,1.0,2.0
281.7287684,1.942211151,1.023571472,-0.4273612976,2.236631483,1.0,2.0
281.7387464,2.461930389,0.01990859985,-0.4912783813,2.510548156,1.0,2.0
281.7487244,3.21187088,-1.524280243,-0.6102809143,3.607213274,1.0,2.0
281.7587034,4.389621735,-4.199067993,-1.158141632,6.184031292,1.0,2.0
281.7686814,5.613476715,-8.325986023,-2.126927032,10.26435496,1.0,2.0
281.7786604,7.904312897,-13.83887192,-3.475472717,16.31169669,1.0,2.0
281.7886384,12.10577591,-20.75119766,-4.757107544,24.49065305,1.0,2.0
281.7986174,20.25348267,-28.82929916,-5.819598083,35.7099394,1.0,2.0
281.8085954,30.51509354,-40.42224152,-5.724396057,50.96957183,1.0,2.0
281.8185744,38.79781952,-51.20087723,-4.926405487,64.42879868,1.0,2.0
281.8285524,43.09193985,-47.41779419,-3.134781189,64.14974153,1.0,2.0
281.8385304,39.45016296,-34.62060608,-0.3300636292,52.48819548,1.0,2.0
281.8485094,32.40656021,-20.73098969,3.855532379,38.66295653,1.0,2.0
281.8584874,24.99502258,-8.048912201,4.51655777,26.64461363,1.0,2.0
281.8684664,21.90050766,-8.19171524,6.872209167,24.37137036,1.0,2.0
281.8784444,19.65203339,-17.29323853,6.186335449,26.89849924,1.0,2.0
281.8884234,13.70475082,-16.99610641,6.239474945,22.70724281,1.0,2.0
281.8984014,7.826025696,-12.36803055,6.971303101,16.21153678,1.0,2.0
281.9083804,5.72050415,-9.896969147,5.689518585,12.76889924,1.0,2.0
281.9183584,4.191733246,-6.95618454,3.614084473,8.889360918,1.0,2.0
281.9283374,2.938539276,-4.329596558,-0.2177970886,5.237160968,1.0,2.0
281.9383154,3.486699371,-4.519401855,-3.597019958,6.746896933,1.0,2.0
281.9482934,3.017724609,-4.129013672,-5.650000763,7.620887372,1.0,2.0
281.9582724,-0.8500822449,-1.073417816,-7.335944824,7.462637074,1.0,2.0
281.9682504,-5.795348511,1.121318207,-9.285939789,11.00327663,1.0,2.0
281.9782294,-9.736951904,0.7044351196,-12.1351149,15.57451363,1.0,2.0
281.9882074,-11.99470688,-0.3688330078,-14.02747971,18.46020633,1.0,2.0
281.9981864,-12.11101501,-1.240021362,-13.83617752,18.42970825,1.0,2.0
282.0081644,-11.15121094,-0.909508667,-11.72960815,16.20988645,1.0,2.0
282.0181434,-8.836274872,-0.07858657837,-8.918903046,12.55518861,1.0,2.0
282.0281214,-5.778433685,0.3556604004,-6.558461609,8.748154597,1.0,2.0
282.0381004,-2.828817444,1.171763306,-4.960534515,5.829420216,1.0,2.0
282.0480784,-0.1516346741,1.94355835,-4.018244019,4.466172536,1.0,2.0
282.0580574,1.806742859,2.643353119,-3.944148102,5.080151545,1.0,2.0
282.0680354,3.044219513,3.280278625,-4.239633636,6.164575709,1.0,2.0
282.0780134,3.607498169,3.677402802,-4.506678314,6.844522177,1.0,2.0
282.0879924,3.693569183,3.904031525,-4.419709167,6.958286038,1.0,2.0
282.0979704,3.557651825,4.006717987,-3.982169037,6.675952799,1.0,2.0
282.1079494,3.467090149,3.7875737,-3.340752869,6.125933265,1.0,2.0
282.1179274,3.521427155,3.247646484,-2.536475372,5.420457933,1.0,2.0
282.1279064,3.5102005,2.717149658,-1.530118103,4.695281805,1.0,2.0
282.1378844,3.595074005,2.114652557,-0.6936575317,4.228176121,1.0,2.0
282.1478634,4.017794952,0.9565109253,-0.386945343,4.148170214,1.0,2.0
282.1578414,5.434449005,-1.467398529,-0.7161108398,5.674443512,1.0,2.0
282.1678204,8.236472168,-5.548212433,-1.645378418,10.0662508,1.0,2.0
282.1777984,12.74704239,-11.52842651,-3.203638,17.48299185,1.0,2.0
282.1877764,17.31688934,-18.61992966,-4.941673737,25.90360161,1.0,2.0
282.1977554,21.84317688,-24.57828918,-5.996380463,33.42414179,1.0,2.0
282.2077334,27.40261597,-30.87913651,-6.326593781,41.76661612,1.0,2.0
282.2177124,32.3947348,-38.1637381,-6.087690582,50.42766825,1.0,2.0
282.2276904,36.37465851,-45.14761505,-5.913901978,58.27861669,1.0,2.0
282.2376694,33.22790222,-45.31317078,-3.64596817,56.30870284,1.0,2.0
282.2476474,22.15946915,-35.27040482,-0.3558100891,41.65537336,1.0,2.0
282.2576264,10.46892975,-22.98545151,3.1054422,25.44746043,1.0,2.0
282.2676044,3.892505493,-21.18260056,4.985083466,22.10667823,1.0,2.0
282.2775824,0.8768765259,-24.05377991,3.565435638,24.33239757,1.0,2.0
282.2875614,-1.161434784,-19.38349182,5.926326141,20.30246358,1.0,2.0
282.2975394,-1.605561218,-12.38584351,7.348818054,14.49110324,1.0,2.0
282.3075184,0.4427792358,-8.885372772,6.093229065,10.78301179,1.0,2.0
282.3174964,4.543950806,-8.717571716,3.312761078,10.37390628,1.0,2.0
282.3274754,6.881938934,-6.533164215,-0.2372566223,9.492081377,1.0,2.0
282.3374537,6.984026642,-2.127076721,-3.395988007,8.051944986,1.0,2.0
282.3474327,4.922812958,1.02027832,-7.104526062,8.703410012,1.0,2.0
282.3574107,2.471959534,1.477427673,-10.87997498,11.25465379,1.0,2.0
282.3673897,0.4444258118,0.7785310364,-12.60199402,12.63383861,1.0,2.0
282.3773677,-1.213227081,0.8187973022,-12.01790863,12.10671206,1.0,2.0
282.3873467,-1.838327179,1.553469543,-10.28032196,10.55830167,1.0,2.0
282.3973247,-0.2871029663,3.58863739,-11.89261917,12.42558398,1.0,2.0
282.4073027,2.666554871,5.031187592,-12.89373734,14.09509936,1.0,2.0
282.4172817,3.186573486,4.426744537,-13.3932486,14.46130788,1.0,2.0
282.4272597,3.375480652,4.648134155,-11.03265747,12.43859122,1.0,2.0
282.4372387,2.276316376,5.74984314,-8.390501862,10.42318732,1.0,2.0
282.4472167,1.165476379,6.179000702,-5.356461182,8.260148985,1.0,2.0
282.4571957,0.9466314697,5.887407074,-3.159030762,6.748121853,1.0,2.0
282.4671737,1.138682098,5.317093048,-2.187101898,5.861014427,1.0,2.0
282.4771527,1.610500946,4.914879456,-2.249222717,5.639925194,1.0,2.0
282.4871307,2.092947693,4.679419098,-3.268602905,6.079568907,1.0,2.0
282.4971097,2.6011409,4.759053497,-5.017416229,7.388436221,1.0,2.0
282.5070877,3.000510406,4.579277344,-6.498137054,8.496977631,1.0,2.0
282.5170657,3.14870224,3.804338837,-6.921756134,8.502824693,1.0,2.0
282.5270447,3.094664612,3.188669128,-6.20265152,7.630035763,1.0,2.0
282.5370227,2.869383087,2.716401215,-5.015470276,6.384914796,1.0,2.0
282.5470017,2.834954681,1.60062149,-3.832180939,5.028376274,1.0,2.0
282.5569797,3.005300446,0.1727407837,-2.784958649,4.100934628,1.0,2.0
282.5669587,3.797752533,-1.726809082,-1.941462708,4.601529241,1.0,2.0
282.5769367,6.195765839,-4.987777863,-1.419797516,8.079682377,1.0,2.0
282.5869157,10.10279114,-9.899663544,-1.541344757,14.22833338,1.0,2.0
282.5968937,15.30432449,-16.2451181,-2.222129059,22.42908977,1.0,2.0
282.6068727,22.46558258,-23.24052109,-3.185076599,32.48028531,1.0,2.0
282.6168507,32.07305374,-31.6727861,-5.153483276,45.36964344,1.0,2.0
282.6268287,39.55389725,-45.62781647,-6.922953644,60.78104729,1.0,2.0
282.6368077,42.01298355,-54.31679764,-7.40779541,69.06721889,1.0,2.0
282.6467857,34.65982452,-43.66749298,-4.345762939,55.91993415,1.0,2.0
282.6567647,21.82865707,-28.52153915,-0.4577481079,35.91904785,1.0,2.0
282.6667427,12.42146942,-18.21936264,1.189127197,22.08284631,1.0,2.0
282.6767217,8.303981781,-16.63894913,4.541705475,19.14256592,1.0,2.0
282.6866997,7.153773651,-20.58908478,5.050946503,22.3740687,1.0,2.0
282.6966787,4.754712524,-17.36089783,4.785398712,18.62546927,1.0,2.0
282.7066567,2.440674591,-10.46144531,4.855303345,11.78866833,1.0,2.0
282.7166357,3.775748291,-9.066795502,3.544329529,10.44151941,1.0,2.0
282.7266137,5.276976471,-9.474996643,0.9262738037,10.88485302,1.0,2.0
282.7365927,5.026098175,-6.853947144,-1.615290985,8.651440301,1.0,2.0
282.7465707,4.107907562,-3.379821625,-3.586392059,6.41562988,1.0,2.0
282.7565487,3.153641968,-1.403780823,-5.478906555,6.475683385,1.0,2.0
282.7665277,2.22437439,-0.6216572571,-6.873855743,7.251495842,1.0,2.0
282.7765057,1.409468994,0.168848877,-7.692353668,7.822238666,1.0,2.0
282.7864847,0.7659571838,1.079255676,-7.89458313,8.004743969,1.0,2.0
282.7964627,0.4881349182,1.646126862,-7.695347443,7.884566038,1.0,2.0
282.8064417,0.5620811462,1.768721924,-7.258406067,7.491913714,1.0,2.0
282.8164197,0.8271798706,1.78324173,-6.644382935,6.929069359,1.0,2.0
282.8263987,0.8400531006,1.886077881,-5.969436493,6.316419162,1.0,2.0
282.8363767,0.6050418091,1.986519012,-5.284610596,5.677978736,1.0,2.0
282.8463557,0.2953358459,2.100581818,-4.516108704,4.989479438,1.0,2.0
282.8563337,0.001347198486,2.177821198,-3.815565491,4.393341211,1.0,2.0
282.8663117,-0.2939886475,2.228266296,-3.144810333,3.865414861,1.0,2.0
282.8762907,-0.4755610657,2.36822525,-2.596949615,3.546659903,1.0,2.0
282.8862687,-0.4810995483,2.487826538,-2.074236603,3.274629009,1.0,2.0
282.8962477,-0.4141886902,2.621797943,-1.687440948,3.145287535,1.0,2.0
282.9062257,-0.1950444031,2.717449036,-1.5328125,3.126033548,1.0,2.0
282.9162047,0.2032772827,2.633024597,-1.691781921,3.136282234,1.0,2.0
282.9261827,0.602946167,2.572400665,-1.997595978,3.312277004,1.0,2.0
282.9361617,1.053958282,2.569706268,-2.170037384,3.524667447,1.0,2.0
282.9461397,1.472487946,2.524649963,-2.293979645,3.715430096,1.0,2.0
282.9561187,1.857936401,2.322869568,-2.459235992,3.859467887,1.0,2.0
282.9660967,2.170935516,1.905537415,-2.607278137,3.891263694,1.0,2.0
282.9760757,2.395917664,1.276844788,-2.724484406,3.846240936,1.0,2.0
282.9860537,3.225342865,-0.3257226562,-2.869832153,4.329534436,1.0,2.0
282.9960317,6.212231598,-4.397704926,-2.750380554,8.092973695,1.0,2.0
283.0060107,11.47528702,-10.7111261,-2.735261993,15.93399174,1.0,2.0
283.0159887,16.98772385,-18.01174438,-2.849474487,24.92238356,1.0,2.0
283.0259677,22.61287628,-24.74713806,-2.006876678,33.58259326,1.0,2.0
283.0359457,29.3184819,-33.0782135,-0.8696914673,44.20970428,1.0,2.0
283.0459247,34.55010269,-41.83245895,-0.7682025146,54.26098371,1.0,2.0
283.0559027,38.18439514,-46.56905914,-2.085762634,60.25840777,1.0,2.0
283.0658817,34.33604782,-43.81418793,-1.892963562,55.697671,1.0,2.0
283.0758597,23.89256516,-34.03397598,0.260458374,41.5840598,1.0,2.0
283.0858387,13.75130402,-22.19674164,1.292562103,26.14315242,1.0,2.0
283.0958167,6.59348877,-15.26061539,3.884122925,17.07181558,1.0,2.0
283.1057957,3.036136322,-17.43125153,3.882626038,18.11467467,1.0,2.0
283.1157737,0.2911445618,-16.7016687,4.167034607,17.21611687,1.0,2.0
283.1257517,-1.331930237,-11.27230911,5.686225433,12.69535941,1.0,2.0
283.1357307,-1.034498749,-7.578739929,4.966372375,9.119887124,1.0,2.0
283.1457087,0.5321434021,-5.871839447,2.545157318,6.421798881,1.0,2.0
283.1556877,2.156565399,-4.287833405,-0.8232879639,4.869711767,1.0,2.0
283.1656657,3.245999908,-2.256707153,-3.911815338,5.561613239,1.0,2.0
283.1756447,2.758014679,0.1115180969,-7.095095673,7.613111313,1.0,2.0
283.1856227,1.050814819,1.8592836,-10.15383499,10.37600657,1.0,2.0
283.1956017,-0.08232879639,2.387235718,-11.70520889,11.94644665,1.0,2.0
283.2055797,-0.4728666687,2.470762024,-11.74113419,12.00760175,1.0,2.0
283.2155587,-0.3712280273,2.604284363,-11.09148514,11.39917321,1.0,2.0
283.2255367,0.3046165466,2.58003479,-9.93633728,10.2703539,1.0,2.0
283.2355157,1.082698517,2.725232849,-8.759484558,9.237299383,1.0,2.0
283.2454937,1.674268341,3.222349091,-7.558082886,8.385184855,1.0,2.0
283.2554717,1.85464325,3.978426819,-6.153852997,7.558934332,1.0,2.0
283.2654507,1.835483093,4.944068756,-4.423152008,6.883101607,1.0,2.0
283.2754287,1.923500061,5.915398865,-2.871329041,6.851009172,1.0,2.0
283.2854077,2.434387665,6.602470093,-1.806144104,7.265054105,1.0,2.0
283.2953857,3.425776062,6.77131897,-1.47428421,7.730473216,1.0,2.0
283.3053647,4.595892792,6.532864838,-1.485810242,8.124542179,1.0,2.0
283.3153427,5.49118103,6.079906769,-1.566342773,8.340969075,1.0,2.0
283.3253217,5.687123566,5.494324493,-1.536255341,8.05549853,1.0,2.0
283.3353008,5.415438538,4.93658432,-1.111887817,7.411688999,1.0,2.0
283.3452798,4.861440582,4.284390564,-0.6230044556,6.50981886,1.0,2.0
283.3552578,3.956572266,3.44239151,-0.2794688416,5.251916434,1.0,2.0
283.3652368,3.042872314,2.48647934,0.01437011719,3.929612949,1.0,2.0
283.3752148,2.552042999,1.197060699,0.352666626,2.840818815,1.0,2.0
283.3851928,3.285368042,-1.214873657,0.6933581543,3.570757161,1.0,2.0
283.3951718,6.696324921,-6.283782806,0.3308120728,9.188913452,1.0,2.0
283.4051498,12.76006531,-13.69726639,-0.3659889221,18.72346979,1.0,2.0
283.4151288,18.16248093,-20.44508423,-0.943787384,27.36362398,1.0,2.0
283.4251068,26.9111879,-24.79219437,-0.5297483826,36.59433793,1.0,2.0
283.4350858,39.98410263,-34.25686249,-1.568588104,52.67562586,1.0,2.0
283.4450638,46.25935318,-49.35237122,-3.551664276,67.73624303,1.0,2.0
283.4550428,44.65049881,-52.15184967,-7.478298798,69.06089647,1.0,2.0
283.4650208,35.04886551,-37.14929764,-6.658453674,51.5056142,1.0,2.0
283.4749998,21.58316757,-21.19248001,-2.364483032,30.34048634,1.0,2.0
283.4849778,11.46031815,-8.587192841,0.3195854187,14.32413724,1.0,2.0
283.4949568,8.52058136,-8.722511444,4.93538681,13.15448804,1.0,2.0
283.5049348,9.400152283,-16.1256665,3.298690338,18.95471817,1.0,2.0
283.5149128,7.290888519,-13.57122849,2.944227448,15.68450743,1.0,2.0
283.5248918,4.644242249,-7.677833862,3.28207489,9.55458709,1.0,2.0
283.5348698,5.20108429,-5.833369446,2.023941193,8.073153958,1.0,2.0
283.5448488,6.872059479,-4.680017853,-0.422870636,8.325057847,1.0,2.0
283.5548268,6.70575531,-2.777474213,-2.555635529,7.694984746,1.0,2.0
283.5648058,5.211861877,-0.8870553589,-3.994144135,6.625976064,1.0,2.0
283.5747838,3.103496246,-0.02918930054,-5.575156403,6.380823605,1.0,2.0
283.5847628,0.7481442261,0.3617976379,-6.528374176,6.581055135,1.0,2.0
283.5947408,-1.422491913,1.351090393,-6.825206909,7.10157573,1.0,2.0
283.6047198,-2.837200012,2.215991821,-6.926396484,7.806106066,1.0,2.0
283.6146978,-3.363056488,2.408192139,-7.318131866,8.406223429,1.0,2.0
283.6246768,-3.227588196,2.348765717,-7.759414215,8.725968996,1.0,2.0
283.6346548,-2.685715027,2.453547821,-7.813751221,8.619029543,1.0,2.0
283.6446328,-2.13426178,2.882705383,-7.657476196,8.455885842,1.0,2.0
283.6546118,-1.653910675,3.527564392,-7.078629913,8.079983447,1.0,2.0
283.6645898,-1.220561829,4.165238342,-6.145769806,7.523926377,1.0,2.0
283.6745688,-0.8032296753,4.546645203,-5.096302185,6.87673298,1.0,2.0
283.6845468,-0.1996847534,4.71893692,-3.986060944,6.180365807,1.0,2.0
283.6945258,0.6879693604,4.708009644,-3.088078308,5.67229092,1.0,2.0
283.7045038,1.518442383,4.64289505,-2.540966034,5.506237381,1.0,2.0
283.7144828,2.179767151,4.555776215,-2.118843842,5.476858678,1.0,2.0
283.7244608,2.603236542,4.371060333,-1.827549591,5.405825232,1.0,2.0
283.7344398,2.786305847,4.134252777,-1.717378693,5.273038581,1.0,2.0
283.7444178,2.978057098,3.799997864,-1.666783905,5.107541134,1.0,2.0
283.7543968,3.002156982,3.566932526,-1.73638916,4.97503784,1.0,2.0
283.7643748,3.07730072,3.22594162,-1.611698456,4.740680433,1.0,2.0
283.7743538,3.23297699,2.593506775,-1.482966156,4.402000253,1.0,2.0
283.7843318,4.131109314,1.034498749,-1.372645569,4.474417022,1.0,2.0
283.7943098,6.572083282,-2.62913269,-1.375040588,7.210780401,1.0,2.0
283.8042888,11.78798676,-8.968450012,-1.571881256,14.89498365,1.0,2.0
283.8142668,18.5822081,-17.20986191,-2.961741028,25.49999441,1.0,2.0
283.8242458,26.165289,-24.39387268,-4.547992401,36.0606102,1.0,2.0
283.8342238,34.78406616,-32.04266693,-4.718637543,47.52819482,1.0,2.0
283.8442028,40.99689651,-40.73089966,-4.749473419,57.98542238,1.0,2.0
283.8541808,45.12935303,-46.98803787,-8.568332062,65.71111414,1.0,2.0
283.8641598,42.04621445,-42.34080185,-11.5020813,60.76944565,1.0,2.0
283.8741378,29.45529739,-29.88460464,-7.720345459,42.66506619,1.0,2.0
283.8841168,15.75294159,-19.79588425,-4.661306763,25.72469597,1.0,2.0
283.8940948,5.569917297,-14.29332687,-1.574126587,15.42079915,1.0,2.0
283.9040738,1.538201294,-16.74717407,2.107916565,16.94925411,1.0,2.0
283.9140518,-0.9743238831,-17.40161316,3.826941833,17.84407272,1.0,2.0
283.9240298,-5.422922974,-10.96005844,5.578449554,13.44061286,1.0,2.0
283.9340088,-5.769302673,-6.417305145,6.538103943,10.82651661,1.0,2.0
283.9439868,-2.559228058,-6.625971222,5.747597809,9.137178091,1.0,2.0
283.9539658,0.06152206421,-6.282435608,4.570894775,7.769547038,1.0,2.0
283.9639438,1.549727325,-4.546794891,3.484903107,5.934605988,1.0,2.0
283.9739228,2.189945984,-2.825823669,2.116149445,4.1544231,1.0,2.0
283.9839008,1.454225922,-1.504221954,0.02859054565,2.092432589,1.0,2.0
283.9938798,-0.2188449097,-0.5932164001,-2.711012421,2.783772106,1.0,2.0
284.0038578,-1.837279358,0.1086740112,-5.652545471,5.944634201,1.0,2.0
284.0138368,-2.733765106,0.725690918,-7.771389313,8.270102225,1.0,2.0
284.0238148,-2.80935791,0.6096821594,-9.090146942,9.533885652,1.0,2.0
284.0337938,-2.418221283,0.1691482544,-9.959539032,10.25030844,1.0,2.0
284.0437718,-1.536554718,0.3052153015,-10.09186386,10.21273093,1.0,2.0
284.0537498,-0.7979905701,0.845741272,-9.605525208,9.675648906,1.0,2.0
284.0637288,-0.3909869385,1.573078766,-8.747359772,8.896277343,1.0,2.0
284.0737068,0.03338058472,2.12722641,-8.219108276,8.489991008,1.0,2.0
284.0836858,0.3558100891,2.373763733,-7.719147949,8.083724398,1.0,2.0
284.0936638,0.54292099,2.589614868,-7.03566925,7.516748643,1.0,2.0
284.1036428,0.6274951172,2.757565613,-6.453978882,7.046400616,1.0,2.0
284.1136208,0.6370751953,2.769241333,-5.775888977,6.437037816,1.0,2.0
284.1235998,0.8434959412,2.660267944,-5.296885071,5.987111356,1.0,2.0
284.1335778,1.203796692,2.530338135,-4.980892181,5.714982456,1.0,2.0
284.1435568,1.751507721,2.421364746,-4.810097351,5.662845844,1.0,2.0
284.1535348,2.170187073,2.410138092,-4.815186768,5.805557782,1.0,2.0
284.1635138,2.624791718,2.50983078,-4.94945755,6.138885253,1.0,2.0
284.1734918,3.031046906,2.486629028,-5.228926392,6.535460234,1.0,2.0
284.1834708,3.597918091,2.248174896,-5.349725189,6.827800858,1.0,2.0
284.1934488,4.932393036,0.9559121704,-5.402116241,7.377338885,1.0,2.0
284.2034268,8.231382751,-3.112028503,-5.44088562,10.34618866,1.0,2.0
284.2134058,14.22940979,-10.91335556,-6.064189453,18.93018294,1.0,2.0
284.2233838,20.8913063,-21.21538239,-8.045020294,30.84252714,1.0,2.0
284.2333628,26.5899559,-31.08870071,-9.699080658,42.04289753,1.0,2.0
284.2433408,35.41650101,-39.93814819,-8.262518005,54.01530735,1.0,2.0
284.2533198,44.28870117,-49.01332626,-6.852599945,66.41350261,1.0,2.0
284.2632978,47.6432254,-48.9597377,-4.993316345,68.49719739,1.0,2.0
284.2732768,38.98283478,-35.9062825,0.2939886475,53.00008453,1.0,2.0
284.2832548,25.01897278,-21.68300995,1.694176941,33.15074893,1.0,2.0
284.2932338,14.88534576,-23.47283798,4.358037415,28.13432302,1.0,2.0
284.3032118,5.138215027,-26.24462402,7.683222656,27.82469145,1.0,2.0
284.3131908,-0.380508728,-22.59042297,13.05689804,26.0951065,1.0,2.0
284.3231688,1.925146637,-17.7819722,15.92119171,23.94554385,1.0,2.0
284.3331462,5.114115143,-14.1589064,13.05195831,19.92441768,1.0,2.0
284.3431242,2.735411682,-10.95227463,7.717501373,13.67459777,1.0,2.0
284.3531032,-0.2933898926,-6.21672226,-0.9635462952,6.297788083,1.0,2.0
284.3630812,-0.1502874756,-4.737049255,-8.990753632,10.16345772,1.0,2.0
284.3730592,-0.7899073792,-3.196602631,-12.94118866,13.35352335,1.0,2.0
284.3830382,-2.942580872,0.3314108276,-17.18651047,17.43974648,1.0,2.0
284.3930162,-3.858675842,0.583636322,-18.55481506,18.96077985,1.0,2.0
284.4029952,-4.448599091,-0.07679031372,-17.4647818,18.02261174,1.0,2.0
284.4129732,-5.57545578,0.3754193115,-14.41023376,15.45579128,1.0,2.0
284.4229522,-6.211183777,0.2615061951,-11.0602002,12.68760095,1.0,2.0
284.4329302,-5.995033264,-0.005688171387,-8.170908508,10.13430817,1.0,2.0
284.4429092,-5.275180206,0.440533905,-5.899382172,7.926178546,1.0,2.0
284.4528872,-4.268224182,0.9361532593,-4.439168701,6.228991841,1.0,2.0
284.4628662,-3.091820526,1.488205261,-3.545527039,4.934052193,1.0,2.0
284.4728442,-1.841919708,2.179168396,-2.930905151,4.090433732,1.0,2.0
284.4828232,-0.553099823,2.825524292,-2.712808685,3.955861209,1.0,2.0
284.4928012,0.4203259277,3.536994781,-2.822530518,4.544632493,1.0,2.0
284.5027802,1.225202179,3.938160553,-3.169209595,5.201357359,1.0,2.0
284.5127582,1.886976013,3.553460541,-3.474275208,5.31585821,1.0,2.0
284.5227372,2.023342438,3.209326172,-3.267106018,5.00676251,1.0,2.0
284.5327152,1.747316437,3.369642792,-2.734812927,4.678334001,1.0,2.0
284.5426932,1.549877014,3.307372284,-2.414928131,4.3786651,1.0,2.0
284.5526722,1.558858337,2.730022888,-2.362836456,3.932691242,1.0,2.0
284.5626502,1.758543091,2.296374664,-2.207609253,3.638591625,1.0,2.0
284.5726292,1.802401886,2.030527496,-2.179318085,3.481540146,1.0,2.0
284.5826072,2.267784119,1.059796143,-2.153721313,3.302200504,1.0,2.0
284.5925862,3.33596283,-1.043929138,-2.184706879,4.122060188,1.0,2.0
284.6025642,5.762416992,-4.833299103,-2.258204041,7.852752084,1.0,2.0
284.6125432,9.903405762,-11.52842651,-2.344275055,15.37783109,1.0,2.0
284.6225212,14.3645787,-19.81489471,-2.80232254,24.63380169,1.0,2.0
284.6325002,22.18042557,-27.21999573,-4.464017029,35.3952948,1.0,2.0
284.6424782,33.28583176,-37.46020111,-6.607110443,50.5456939,1.0,2.0
284.6524572,39.5506041,-47.1018013,-6.634204102,61.8614794,1.0,2.0
284.6624352,39.13297256,-46.39527054,-6.067931671,60.99779066,1.0,2.0
284.6724142,33.11608475,-34.60818192,-5.051694946,48.16555768,1.0,2.0
284.6823922,26.03116791,-20.34359528,-2.92985733,33.16726753,1.0,2.0
284.6923712,22.11082031,-12.59226425,-1.148711243,25.47102337,1.0,2.0
284.7023492,20.55390793,-13.73229355,0.143102417,24.71961763,1.0,2.0
284.7123282,18.41755051,-15.62046707,0.6433621216,24.15820923,1.0,2.0
284.7223062,14.55378525,-13.42647949,2.907404022,20.01339588,1.0,2.0
284.7322842,10.7031926,-9.320817261,4.859794006,15.00178536,1.0,2.0
284.7422632,7.985593872,-6.812483368,4.486620026,11.4153142,1.0,2.0
284.7522412,6.028563538,-4.182452545,3.589685211,8.168373616,1.0,2.0
284.7622202,5.423072662,-2.089504852,2.357597351,6.271683418,1.0,2.0
284.7721982,5.980812836,-1.657353516,0.6728507996,6.242569267,1.0,2.0
284.7821772,6.292315063,-0.9940827942,-0.6530918884,6.40374566,1.0,2.0
284.7921552,6.144422607,0.06810836792,-0.9833052063,6.22297815,1.0,2.0
284.8021342,5.629792786,0.8731343079,-1.039737854,5.791198938,1.0,2.0
284.8121122,4.82776062,1.3350737,-1.023122406,5.11238436,1.0,2.0
284.8220912,3.901486816,1.768721924,-0.9982740784,4.398468797,1.0,2.0
284.8320692,2.947969666,2.326462097,-1.28118576,3.967919857,1.0,2.0
284.8420482,1.960173798,3.040028229,-1.652713165,3.976872358,1.0,2.0
284.8520262,0.7363188171,4.207899628,-2.222578125,4.815437488,1.0,2.0
284.8620052,-0.6530918884,5.627098389,-2.837649078,6.335851765,1.0,2.0
284.8719832,-2.127825165,7.188052368,-3.600462799,8.316193188,1.0,2.0
284.8819622,-3.372486877,8.709189148,-4.196373596,10.23880827,1.0,2.0
284.8919402,-4.024980011,9.707313538,-4.583917694,11.46493356,1.0,2.0
284.9019192,-4.10117157,9.912536774,-5.341791687,11.98385297,1.0,2.0
284.9118972,-3.680246887,9.159153442,-6.263724518,11.69053266,1.0,2.0
284.9218762,-3.53714447,7.988437958,-7.03806427,11.21877358,1.0,2.0
284.9318542,-3.521726532,6.984326019,-7.457342377,10.80718849,1.0,2.0
284.9418332,-3.208727417,5.973627777,-7.412735138,10.0463328,1.0,2.0
284.9518112,-2.559078369,4.862638092,-6.824757843,8.761931918,1.0,2.0
284.9617902,-1.898651733,3.907474365,-5.848937073,7.285828656,1.0,2.0
284.9717682,-1.292711792,3.104843445,-4.745431824,5.816380299,1.0,2.0
284.9817472,-0.4951702881,2.194436646,-3.742966461,4.366983368,1.0,2.0
284.9917252,1.064137115,0.4825964355,-2.64904129,2.895290465,1.0,2.0
230.0066778,12.01506454,-10.20742355,0.3284170532,15.76899266,1.0,3.0
230.0166558,11.00661163,-7.707472229,-0.04879852295,13.43700149,1.0,3.0
230.0266338,9.819280701,-5.418582001,-0.5806425476,11.23015806,1.0,3.0
230.0366118,8.547974396,-3.065924377,-1.079255676,9.145083454,1.0,3.0
230.0465908,7.397766266,-0.8482859802,-1.601669312,7.616552988,1.0,3.0
230.0565688,6.291865997,0.795894928,-2.288441162,6.742254031,1.0,3.0
230.0665468,5.424120483,1.55616394,-3.01068924,6.395856387,1.0,3.0
230.0765258,4.486769714,1.887125702,-3.754043427,6.14696575,1.0,3.0
230.0865038,3.357667694,2.373015289,-4.084855499,5.79578971,1.0,3.0
230.0964818,2.326761475,2.81175293,-4.315525818,5.651861338,1.0,3.0
230.1064608,1.475631409,3.102149048,-4.490661621,5.653924174,1.0,3.0
230.1164388,0.8870553589,3.301534424,-4.589905243,5.723130865,1.0,3.0
230.1264168,0.3766168213,3.525768127,-4.753814392,5.930567628,1.0,3.0
230.1363958,-0.04715194702,3.781137085,-4.936284943,6.218209549,1.0,3.0
230.1463738,-0.3345542908,3.918102264,-5.098397827,6.438719774,1.0,3.0
230.1563518,-0.4984634399,4.012555847,-5.281916199,6.65189514,1.0,3.0
230.1663308,-0.5728587341,4.129013672,-5.402714996,6.823946832,1.0,3.0
230.1763088,-0.5782475281,4.251009979,-5.513035583,6.985629348,1.0,3.0
230.1862868,-0.5023553467,4.343816986,-5.506598969,7.031624215,1.0,3.0
230.1962648,-0.3320095825,4.458179169,-5.436993713,7.038926943,1.0,3.0
230.2062438,0.006885681152,4.530927887,-5.388793945,7.040486852,1.0,3.0
230.2162218,0.4134402466,4.556075592,-5.421575775,7.093817134,1.0,3.0
230.2261998,0.7182064819,4.519850922,-5.523364105,7.1730345,1.0,3.0
230.2361788,0.9523196411,4.475243683,-5.456602936,7.12104166,1.0,3.0
230.2461568,1.164727936,4.437073059,-5.399272156,7.08493813,1.0,3.0
230.2561348,1.397493896,4.279151459,-5.370831299,7.007849544,1.0,3.0
230.2661138,1.706601105,3.948638763,-5.222639465,6.766106591,1.0,3.0
230.2760918,2.090253296,3.624562683,-5.090015259,6.58899604,1.0,3.0
230.2860698,2.505938873,3.392395477,-4.875062256,6.446263159,1.0,3.0
230.2960488,2.879861298,3.226091309,-4.646188202,6.34730896,1.0,3.0
230.3060268,3.104544067,3.128643951,-4.556225281,6.339226739,1.0,3.0
230.3160048,3.765270081,2.692151642,-4.576283569,6.509017633,1.0,3.0
230.3259838,5.010380859,1.513951721,-4.955744476,7.208007317,1.0,3.0
230.3359618,7.234455872,-0.5180726624,-5.475014648,9.087438387,1.0,3.0
230.3459398,10.48764084,-3.182531891,-5.8844133,12.439672,1.0,3.0
230.3559188,15.43979279,-6.58525589,-6.149212646,17.8763982,1.0,3.0
230.3658968,22.50450165,-11.69024002,-6.949897614,26.29477863,1.0,3.0
230.3758748,30.10988617,-17.90082504,-6.766678619,35.67678127,1.0,3.0
230.3858528,37.73622711,-24.16410049,-6.259233856,45.24494002,1.0,3.0
230.3958318,44.8391066,-30.94275421,-7.600145416,55.00692437,1.0,3.0
230.4058098,48.63611069,-35.87499756,-7.450307007,60.89329838,1.0,3.0
230.4157878,46.34287949,-36.85635681,-4.775219879,59.40417697,1.0,3.0
230.4257668,39.7800769,-36.46641769,-1.974394226,54.00141082,1.0,3.0
230.4357448,32.23711258,-36.46013077,0.9198371887,48.67667474,1.0,3.0
230.4457228,24.25286591,-34.17558151,4.536316681,42.15151297,1.0,3.0
230.4557018,16.10081818,-27.40680725,6.580316162,32.46028328,1.0,3.0
230.4656798,9.282946014,-19.95036301,6.1909758,22.85865814,1.0,3.0
230.4756578,5.32861908,-15.52631287,5.375172272,17.27289928,1.0,3.0
230.4856368,3.568279724,-13.32394272,3.705993347,14.28266279,1.0,3.0
230.4956148,2.468666382,-11.63305893,1.118324432,11.94458134,1.0,3.0
230.5055928,1.768272858,-10.14650024,-1.705253906,10.43964305,1.0,3.0
230.5155718,0.69620224,-8.304430847,-4.916825409,9.675920698,1.0,3.0
230.5255498,-0.7906558228,-5.708978119,-7.081623688,9.130551016,1.0,3.0
230.5355278,-2.38813385,-2.946921844,-7.872728577,8.738843567,1.0,3.0
230.5455058,-3.898043976,-0.8759783936,-7.787256317,8.752339455,1.0,3.0
230.5554848,-5.250780945,0.36389328,-7.387138367,9.070442773,1.0,3.0
230.5654628,-6.084996185,0.7891589355,-6.963668976,9.281305727,1.0,3.0
230.5754408,-6.179599457,0.3427871704,-6.722221069,9.137461825,1.0,3.0
230.5854198,-6.01539093,-0.3680845642,-6.651717682,8.97584327,1.0,3.0
230.5953978,-5.877228241,-0.7914042664,-6.381828918,8.711823739,1.0,3.0
230.6053758,-5.551505585,-0.8436456299,-5.867648163,8.121591418,1.0,3.0
230.6153548,-4.877307587,-0.8449928284,-5.4491185,7.361727691,1.0,3.0
230.6253328,-3.911965027,-0.9442364502,-5.023254089,6.436469101,1.0,3.0
230.6353108,-2.847079468,-1.10455307,-4.547094269,5.477404976,1.0,3.0
230.6452898,-1.812281342,-1.401385803,-4.157005463,4.74646608,1.0,3.0
230.6552678,-0.9818083191,-1.779948578,-3.739523621,4.256313126,1.0,3.0
230.6652458,-0.6509962463,-2.128274231,-3.141966248,3.850363517,1.0,3.0
230.6752248,-0.5272036743,-2.410587158,-2.426304474,3.460610865,1.0,3.0
230.6852028,-0.1911524963,-2.713856506,-1.699565735,3.207815472,1.0,3.0
230.6951808,0.05822891235,-2.938539276,-1.24960144,3.193729394,1.0,3.0
230.7051598,0.1772314453,-2.986589355,-0.8595126343,3.112858643,1.0,3.0
230.7151378,0.2185455322,-2.895877991,-0.4884342957,2.944900601,1.0,3.0
230.7251158,0.5056484985,-2.820584564,-0.1890568542,2.871779968,1.0,3.0
230.7350948,0.8583151245,-2.797981567,-0.1692979431,2.931564002,1.0,3.0
230.7450728,1.153800659,-2.819237366,-0.3421884155,3.065362653,1.0,3.0
230.7550508,1.479223938,-2.992127838,-0.2356100464,3.346108867,1.0,3.0
230.7650288,2.367776184,-3.27503952,-0.2188449097,4.04723869,1.0,3.0
230.7750078,3.19899765,-3.743714905,-0.3507206726,4.936799798,1.0,3.0
230.7849858,4.636757812,-4.569397888,-0.539178772,6.532199769,1.0,3.0
230.7949638,6.248456268,-5.730383606,-0.7041357422,8.507426706,1.0,3.0
230.8049428,8.670419769,-7.270830231,-1.088087311,11.3677212,1.0,3.0
230.8149208,12.6579776,-9.706565094,-2.029180298,16.07978158,1.0,3.0
230.8248988,17.78167282,-13.2883168,-3.565435638,22.48287311,1.0,3.0
230.8348778,23.78329239,-17.63692383,-5.636079712,30.14086053,1.0,3.0
230.8448558,29.20606567,-21.80859879,-7.898624725,37.29607923,1.0,3.0
230.8548338,32.56358368,-24.10841629,-10.32657578,41.8119706,1.0,3.0
230.8648128,34.15252945,-24.20077423,-11.73769135,43.47236064,1.0,3.0
230.8747908,33.37160339,-21.7274675,-11.39699982,41.42026511,1.0,3.0
230.8847688,30.91625931,-17.75128601,-10.47252228,37.15638529,1.0,3.0
230.8947443,29.53268646,-14.95016098,-9.585167542,34.4610261,1.0,3.0
230.9047223,29.00428528,-14.01490585,-8.972790985,33.43915562,1.0,3.0
230.9147003,28.05555817,-13.19206696,-8.810827789,32.23004283,1.0,3.0
230.9246783,26.37904449,-11.02996307,-8.600515137,29.85771147,1.0,3.0
230.9346573,24.10721878,-7.860753479,-8.283773804,26.67527603,1.0,3.0
230.9446353,21.16793106,-4.36447403,-8.107590179,23.08382458,1.0,3.0
230.9546133,17.90112442,-0.9816586304,-7.781717834,19.54402829,1.0,3.0
230.9645923,14.84268448,1.694626007,-7.196884003,16.5822851,1.0,3.0
230.9745703,12.24438766,3.221750336,-6.325695648,14.15341407,1.0,3.0
230.9845483,10.11296997,3.876638489,-5.458997955,12.12852614,1.0,3.0
230.9945273,8.187673645,4.17481842,-4.663252716,10.30597082,1.0,3.0
231.0045053,6.580465851,4.452341309,-3.631148987,8.735623441,1.0,3.0
231.0144833,5.012775879,4.756957855,-2.653382263,7.402500083,1.0,3.0
231.0244623,3.326083374,5.17758316,-1.688039703,6.381197069,1.0,3.0
231.0344403,1.683249664,5.714067535,-0.817300415,6.012643113,1.0,3.0
231.0444183,0.7054829407,6.029910736,-0.3414399719,6.080634089,1.0,3.0
231.0543973,-0.07080276489,6.353088684,-0.4245172119,6.36764978,1.0,3.0
231.0643753,-0.5896238708,6.853049011,-0.6123765564,6.905573264,1.0,3.0
231.0743533,-0.9102571106,7.281757507,-0.9725276184,7.402592139,1.0,3.0
231.0843323,-1.274150391,7.514822845,-1.611099701,7.79048547,1.0,3.0
231.0943103,-1.121018829,7.460635529,-2.369722137,7.907803027,1.0,3.0
231.1042883,-0.7285350037,7.233557739,-2.991529083,7.861575356,1.0,3.0
231.1142673,-0.3957769775,7.026837616,-3.51139801,7.865303699,1.0,3.0
231.1242453,-0.01047821045,6.792724457,-3.95133316,7.858387181,1.0,3.0
231.1342233,0.3546125793,6.492897949,-4.205205231,7.743850779,1.0,3.0
231.1442013,0.6610253906,6.248456268,-4.374353485,7.656051771,1.0,3.0
231.1541803,0.9021739197,6.070775757,-4.397255859,7.550105639,1.0,3.0
231.1641583,1.207688599,5.922434235,-4.192631378,7.356078907,1.0,3.0
231.1741363,1.820364532,5.691763916,-3.938908997,7.157157787,1.0,3.0
231.1841153,2.565514984,5.269492035,-3.714375916,6.938732008,1.0,3.0
231.1940933,3.318299561,4.744982758,-3.455414429,6.742837846,1.0,3.0
231.2040713,4.108506317,4.13979126,-3.122057648,6.615507523,1.0,3.0
231.2140503,4.736001434,3.47397583,-2.669997711,6.451907116,1.0,3.0
231.2240283,4.990771637,2.869532776,-1.999242554,6.094176784,1.0,3.0
231.2340063,5.148693237,2.254012756,-1.216819611,5.750675223,1.0,3.0
231.2439853,5.542075195,1.286275177,-0.4906796265,5.710505039,1.0,3.0
231.2539633,5.860014038,0.2236349487,0.1152603149,5.865412352,1.0,3.0
231.2639413,6.49978363,-1.085392914,0.9544152832,6.658541398,1.0,3.0
231.2739203,7.855664063,-3.0457164,1.695524139,8.594338157,1.0,3.0
231.2838983,10.64885559,-6.021977234,2.167941742,12.42426282,1.0,3.0
231.2938763,15.2631601,-10.16985168,2.443219299,18.50295274,1.0,3.0
231.3038553,21.75096863,-15.24908936,1.787732391,26.62396194,1.0,3.0
231.3138333,28.85579407,-21.5191008,0.3986210632,35.99843676,1.0,3.0
231.3238113,34.73481857,-28.46241211,-1.531764679,44.93287023,1.0,3.0
231.3337893,38.50547745,-34.33859253,-3.594774628,51.71782222,1.0,3.0
231.3437683,37.93426529,-36.62044739,-4.82776062,52.94688775,1.0,3.0
231.3537463,32.76012497,-33.55018204,-5.051545258,47.16310647,1.0,3.0
231.3637243,26.96851868,-27.98280945,-4.378844147,39.10898746,1.0,3.0
231.3737033,23.38197693,-23.79047745,-3.881578217,33.58229164,1.0,3.0
231.3836813,21.48257675,-21.68720123,-3.767216034,30.75756359,1.0,3.0
231.3936593,19.3028096,-20.16920792,-4.471501465,28.27348107,1.0,3.0
231.4036383,16.56290726,-17.50819153,-5.29344223,24.67563977,1.0,3.0
231.4136163,13.61957794,-13.94739624,-5.755531311,20.32606469,1.0,3.0
231.4235943,10.72804092,-10.70678513,-6.047274628,16.31856735,1.0,3.0
231.4335733,8.019273834,-8.083789673,-6.428082733,13.07580422,1.0,3.0
231.4435513,5.788313141,-5.806575165,-6.906936951,10.72038536,1.0,3.0
231.4535293,3.911216583,-3.830085297,-7.470065918,9.261158316,1.0,3.0
231.4635083,2.269879761,-2.418370972,-7.987240448,8.648519079,1.0,3.0
231.4734863,0.9626481628,-1.635648651,-8.222401428,8.438597232,1.0,3.0
231.4834643,-0.2083666992,-1.243015137,-8.21521637,8.311334629,1.0,3.0
231.4934433,-1.418600006,-0.9855505371,-7.8418927,8.029882749,1.0,3.0
231.5034213,-2.435585175,-0.9177415466,-7.057374115,7.5220246,1.0,3.0
231.5133993,-3.221151581,-0.9725276184,-6.081852722,6.950579833,1.0,3.0
231.5233773,-3.951782227,-0.9589059448,-5.029241638,6.467561738,1.0,3.0
231.5333563,-4.478985901,-0.7960446167,-3.941753082,6.019337098,1.0,3.0
231.5433343,-4.668791199,-0.4790039062,-2.854264526,5.493075822,1.0,3.0
231.5533123,-4.500990143,-0.2496807861,-1.861678619,4.877202071,1.0,3.0
231.5632913,-4.025279388,-0.1282832336,-1.091979218,4.172738831,1.0,3.0
231.5732693,-3.373684387,-0.03502716064,-0.4831951904,3.408291484,1.0,3.0
231.5832473,-2.812052307,0.1351689148,0.09056167603,2.816755266,1.0,3.0
231.5932263,-2.40564743,0.4915777588,0.5960604858,2.526672981,1.0,3.0
231.6032043,-1.785337372,0.785716095,0.8937913513,2.145610005,1.0,3.0
231.6131823,-1.077160034,0.8036787415,0.9220825195,1.629849512,1.0,3.0
231.6231613,-0.5063969421,0.8015830994,0.7493417358,1.20850584,1.0,3.0
231.6331393,-0.1526824951,0.9758207703,0.5758525085,1.143304085,1.0,3.0
231.6431173,0.0390687561,1.323697357,0.3396437073,1.367135293,1.0,3.0
231.6530963,0.2691403198,1.637744293,0.1052311707,1.663044341,1.0,3.0
231.6630743,0.5092410278,1.855840759,-0.1652563477,1.931522976,1.0,3.0
231.6730523,0.5047503662,2.062710571,-0.599203949,2.206488886,1.0,3.0
231.6830313,0.4047583008,2.259102173,-1.002315674,2.504397856,1.0,3.0
231.6930093,0.2823129272,2.445764008,-1.474733276,2.869895539,1.0,3.0
231.7029873,0.374072113,2.438279572,-2.074685669,3.223268192,1.0,3.0
231.7129663,0.7852670288,1.946103058,-2.748135223,3.457775097,1.0,3.0
231.7229443,1.401535492,1.310973816,-3.409459991,3.912463612,1.0,3.0
231.7329223,2.256258087,0.5884263611,-3.983516235,4.615771629,1.0,3.0
231.7429003,3.985611877,-0.7441026306,-4.287534027,5.900994729,1.0,3.0
231.7528793,7.126829681,-3.118165741,-4.138893127,8.811645432,1.0,3.0
231.7628573,11.39879608,-6.374045105,-3.943998413,13.64243844,1.0,3.0
231.7728353,18.04183182,-11.45238464,-4.063599701,21.75264701,1.0,3.0
231.7828143,25.33346878,-18.64028732,-3.495531006,31.64591109,1.0,3.0
231.7927923,31.55168793,-26.13714752,-4.228107605,41.18903235,1.0,3.0
231.8027703,37.31365585,-31.7777179,-4.972210236,49.26312153,1.0,3.0
231.8127493,39.56662079,-34.1544754,-3.239862671,52.36928853,1.0,3.0
231.8227273,36.60413132,-33.73145508,-1.204994202,49.79081745,1.0,3.0
231.8327053,31.00367752,-32.16586075,-0.03817062378,44.6751841,1.0,3.0
231.8426843,25.62296677,-31.1166925,1.463806,40.33519191,1.0,3.0
231.8526623,20.99593872,-30.22439804,3.170257416,36.93770718,1.0,3.0
231.8626403,16.29646133,-27.44303192,3.839665375,32.14712558,1.0,3.0
231.8726193,11.93138855,-22.67394928,3.974983978,25.92810264,1.0,3.0
231.8825973,9.715995483,-17.82553162,4.298311615,20.75152111,1.0,3.0
231.892575,8.846304016,-14.04319702,3.698209534,17.00427097,1.0,3.0
231.902554,8.91725647,-11.64084274,2.213447113,14.82990326,1.0,3.0
231.912532,9.431137848,-9.819280701,0.2387535095,13.6169614,1.0,3.0
231.92251,9.317075043,-7.6242453,-1.499282227,12.13197638,1.0,3.0
231.932489,8.354127502,-4.590354309,-2.21614151,9.786423361,1.0,3.0
231.942467,6.735393677,-1.209035797,-2.043999481,7.141794552,1.0,3.0
231.952445,4.96233078,1.097966766,-2.150727539,5.518685236,1.0,3.0
231.962423,3.579955444,1.558259583,-2.678529968,4.734847062,1.0,3.0
231.972402,2.738704834,1.037642212,-3.253933411,4.37781774,1.0,3.0
231.98238,1.970652008,0.8280780029,-3.731739807,4.300588855,1.0,3.0
231.992358,1.091380463,1.241368561,-3.880530396,4.217893238,1.0,3.0
232.002337,0.5174739075,1.713337097,-3.700903931,4.110960126,1.0,3.0
232.012315,0.1841171265,2.034269714,-3.616329803,4.153311165,1.0,3.0
232.022293,-0.02649490356,2.3436763,-3.694467316,4.375226774,1.0,3.0
232.032272,-0.1630110168,2.655477905,-3.721860352,4.574973221,1.0,3.0
232.04225,-0.3267704773,2.91114624,-3.651955719,4.681701822,1.0,3.0
232.052228,-0.5629792786,3.19899765,-3.560046844,4.819176814,1.0,3.0
232.062207,-0.8764274597,3.58743988,-3.373085632,5.001555425,1.0,3.0
232.072185,-0.9089099121,3.8472995,-3.172652435,5.068880956,1.0,3.0
232.082163,-0.6854246521,3.836521912,-3.132086792,4.999867499,1.0,3.0
232.092142,-0.4173321533,3.749253387,-3.091221771,4.87716302,1.0,3.0
232.10212,0.1143621826,3.752995605,-2.982398071,4.79507591,1.0,3.0
232.112098,0.8331674194,3.738326111,-3.07026535,4.908745194,1.0,3.0
232.122077,1.467997284,3.657793579,-3.375480652,5.189252309,1.0,3.0
232.132055,2.056723022,3.56169342,-3.631448364,5.486637115,1.0,3.0
232.142033,2.526446228,3.516487427,-3.880380707,5.814290051,1.0,3.0
232.152012,2.79064682,3.532953186,-4.141437836,6.117268609,1.0,3.0
232.16199,3.22474411,3.47277832,-4.457730103,6.506191014,1.0,3.0
232.171968,3.310964813,3.231180725,-4.85814743,6.708547781,1.0,3.0
232.181947,3.393443298,3.005150757,-4.936284943,6.701738396,1.0,3.0
232.191925,3.877985687,2.567460938,-4.921016693,6.771043786,1.0,3.0
232.201903,4.412673798,1.817520447,-4.652475128,6.664877751,1.0,3.0
232.211881,5.22563324,0.9541159058,-4.311933289,6.841808869,1.0,3.0
232.22186,6.616391144,-0.3442840576,-4.368515625,7.935936747,1.0,3.0
232.231838,8.792116699,-2.550546112,-4.514761505,10.20733427,1.0,3.0
232.241816,11.7568515,-5.765710144,-4.499044189,13.84587915,1.0,3.0
232.251795,15.81341583,-10.0873732,-4.368665314,19.2588799,1.0,3.0
232.261773,22.69789948,-16.86542816,-5.327571259,28.77534228,1.0,3.0
232.271751,30.82764359,-26.30479889,-5.377267914,40.88032612,1.0,3.0
