"Time (s)","Acceleration x (m/s^2)","Acceleration y (m/s^2)","Acceleration z (m/s^2)","Absolute acceleration (m/s^2)"
2.142833342E-3,-4.544699249E0,5.118755493E0,6.584208069E0,9.497775790E0
1.212083333E-2,-4.418811035E0,5.217999115E0,6.812483368E0,9.652115590E0
2.209883335E-2,-4.197720795E0,5.067412262E0,6.795718231E0,9.459456284E0
3.207683333E-2,-3.976780243E0,4.541555786E0,6.956034851E0,9.210153685E0
4.205483332E-2,-3.759581909E0,3.989803162E0,7.312743073E0,9.139430871E0
5.203283334E-2,-3.603157196E0,3.741768951E0,7.877069550E0,9.435666450E0
6.201083332E-2,-3.685785370E0,3.773203583E0,8.039182434E0,9.615120035E0
7.198883334E-2,-3.900438995E0,3.950435028E0,7.897576904E0,9.653552829E0
8.196683333E-2,-4.134552155E0,4.193379822E0,7.992928619E0,9.928034235E0
9.194383334E-2,-4.308640137E0,4.353846130E0,8.357420654E0,1.036179695E1
1.019218333E-1,-4.436025238E0,4.283193054E0,8.564589844E0,1.055349524E1
1.118998333E-1,-4.491110687E0,4.139940948E0,8.925489349E0,1.081543094E1
1.218778333E-1,-4.411326599E0,4.056863708E0,9.177116089E0,1.096072102E1
1.318558333E-1,-4.331542511E0,3.976181488E0,9.156908112E0,1.088215263E1
1.418338333E-1,-4.079915771E0,3.991449738E0,8.734785919E0,1.043426417E1
1.518118333E-1,-3.995341644E0,3.808081055E0,8.570278015E0,1.019381682E1
1.617898333E-1,-3.901337128E0,3.554658051E0,8.856632538E0,1.030999346E1
1.717678333E-1,-3.790866852E0,3.352727966E0,9.435778198E0,1.070725766E1
1.817458333E-1,-3.569177856E0,3.194207611E0,1.002869522E1,1.111380766E1
1.917238333E-1,-3.177442474E0,3.084635468E0,1.031534912E1,1.122575361E1
2.017018333E-1,-2.722538452E0,2.985840912E0,1.031011002E1,1.107365478E1
2.116798333E-1,-2.073787537E0,2.822081451E0,1.044093796E1,1.101262566E1
2.216578333E-1,-1.217268677E0,2.451901245E0,1.039737854E1,1.075169955E1
2.316348333E-1,-7.018904114E-1,2.131118317E0,1.016910324E1,1.041369176E1
2.416128333E-1,-6.186634827E-1,2.986289978E0,7.543862457E0,8.136985505E0
2.515908333E-1,-4.185296631E-1,3.360362091E0,4.829556885E0,5.898459135E0
2.615688333E-1,-8.457412720E-2,2.404599609E0,6.456822968E0,6.890559839E0
2.715468333E-1,-2.791694641E-1,1.047821045E0,9.083710327E0,9.148205170E0
2.815248333E-1,-1.200503540E0,3.968247986E-1,1.044438080E1,1.052063539E1
2.915028333E-1,-2.410886536E0,4.806504822E-1,1.017344421E1,1.046624890E1
3.014808333E-1,-3.512296143E0,2.035766602E-1,9.862690430E0,1.047140536E1
3.114588333E-1,-4.753515015E0,-1.003064117E0,1.055320450E1,1.161775227E1
3.214368333E-1,-6.099515991E0,-1.962419128E0,1.221804245E1,1.379622214E1
3.314148333E-1,-5.907315674E0,-5.257067871E-1,1.269779480E1,1.401451886E1
3.413928333E-1,-4.480333099E0,1.655706940E0,1.010368927E1,1.117583496E1
3.513708333E-1,-3.330873413E0,1.958826599E0,6.343508606E0,7.427773608E0
3.613488333E-1,-2.925216980E0,1.967059479E0,4.838238831E0,5.986215194E0
3.713258333E-1,-3.097658386E0,2.116897888E0,5.109624481E0,6.339164494E0
3.813038333E-1,-2.896177368E0,2.651136932E0,7.133865051E0,8.142997050E0
3.912818333E-1,-1.676962738E0,3.360811157E0,9.345815277E0,1.007231447E1
4.012598333E-1,-1.170116730E0,3.683689728E0,1.026670029E1,1.097013573E1
4.112378333E-1,-6.677613831E-1,2.801723785E0,8.016429749E0,8.518139900E0
4.212158333E-1,-2.242337036E-1,1.467847595E0,7.731422424E0,7.872721894E0
4.311938333E-1,-7.855664063E-1,1.577120361E0,8.619226227E0,8.797470316E0
4.411718333E-1,-1.375190277E0,2.381098480E0,1.038300842E1,1.074093302E1
4.511498333E-1,-1.123413849E0,2.437830505E0,1.098251175E1,1.130577908E1
4.611278333E-1,-7.258406067E-1,2.230960693E0,1.020053787E1,1.046685259E1
4.711058333E-1,-3.667373657E-1,2.188748474E0,9.744286652E0,9.993810011E0
4.810838333E-1,-1.615141296E-1,2.077978821E0,9.346114655E0,9.575695376E0
4.910618333E-1,1.025367737E-1,1.920356598E0,8.662336578E0,8.873238318E0
5.010398333E-1,3.134481812E-1,1.910926208E0,7.956404572E0,8.188666707E0
5.110178333E-1,3.787124634E-1,2.005379791E0,7.526199188E0,7.797989834E0
5.209948333E-1,6.158193970E-1,2.016307068E0,7.141798553E0,7.446476637E0
5.309728333E-1,7.358697510E-1,1.993255005E0,6.853797455E0,7.175591220E0
5.409508333E-1,5.424719238E-1,2.234104156E0,6.930288391E0,7.301670655E0
5.509288333E-1,4.284091187E-1,2.676284637E0,7.231013031E0,7.722278374E0
5.609068333E-1,5.662724304E-1,3.043321381E0,7.063511353E0,7.712046558E0
5.708848333E-1,9.306147766E-1,3.061284027E0,6.929090881E0,7.632155934E0
5.808628333E-1,1.224753113E0,2.902015228E0,7.020999756E0,7.695203061E0
5.908408333E-1,1.124311981E0,2.811453552E0,7.284900970E0,7.889114694E0
6.008188333E-1,7.493417358E-1,2.813249817E0,7.708370361E0,8.239833809E0
6.107968333E-1,6.746470642E-1,2.933300171E0,7.980654144E0,8.529375072E0
6.207748333E-1,9.066645813E-1,3.000959473E0,7.817343750E0,8.422509230E0
6.307528333E-1,9.647438049E-1,2.808310089E0,7.591014404E0,8.151124821E0
6.407308333E-1,9.322613525E-1,2.610870667E0,7.376360779E0,7.880130405E0
6.507088333E-1,8.988807678E-1,2.642005920E0,7.214696960E0,7.735634050E0
6.606858333E-1,8.752299500E-1,2.884202271E0,7.288194122E0,7.886851321E0
6.706632083E-1,9.410929871E-1,3.012036438E0,7.526199188E0,8.160986076E0
6.806412083E-1,2.135159912E0,2.316582642E0,9.108708344E0,9.638154941E0
6.906192083E-1,3.008443909E0,1.723665619E0,9.318272552E0,9.942432362E0
7.005972083E-1,3.271446991E0,1.781595154E0,8.835825806E0,9.588965761E0
7.105752083E-1,2.777923279E0,1.477876740E0,9.552086334E0,1.005700406E1
7.205532083E-1,2.199226685E0,1.086440735E0,9.999655609E0,1.029611887E1
7.305312083E-1,1.761985931E0,9.930349731E-1,9.908495178E0,1.011281314E1
7.405092083E-1,1.375190277E0,8.815168762E-1,9.538913727E0,9.677762933E0
7.504872083E-1,1.048868866E0,7.894583130E-1,9.142238617E0,9.236010895E0
7.604652083E-1,8.321195984E-1,1.012943573E0,8.560248871E0,8.660042635E0
7.704432083E-1,7.267387390E-1,1.468446350E0,8.033194885E0,8.198579386E0
7.804212083E-1,8.542735291E-1,1.857337646E0,7.813751221E0,8.076768818E0
7.903992083E-1,1.267115021E0,1.891017609E0,7.270231476E0,7.618253985E0
8.003772083E-1,1.490001526E0,1.613195343E0,6.959926758E0,7.298156222E0
8.103552083E-1,1.819466400E0,1.157842255E0,7.114704895E0,7.434385140E0
8.203322083E-1,2.439776459E0,7.364685059E-1,7.341333618E0,7.771105090E0
8.303102083E-1,2.530487823E0,9.419911194E-1,7.568710785E0,8.035925512E0
8.402882083E-1,2.547103271E0,1.496288452E0,8.158933411E0,8.677258127E0
8.502662083E-1,3.222349091E0,1.658101959E0,8.946296082E0,9.652411582E0
8.602442083E-1,4.243525543E0,1.253792725E0,9.178912354E0,1.018979574E1
8.702222083E-1,5.224884796E0,9.295669556E-1,9.496701508E0,1.087891793E1
8.802002083E-1,5.638325043E0,1.083147583E0,1.025517426E1,1.175297907E1
8.901782083E-1,5.822442169E0,1.546583862E0,1.071382050E1,1.229140773E1
9.001562083E-1,6.192023621E0,1.845512238E0,1.145268402E1,1.314956437E1
9.101342083E-1,6.693331146E0,1.835932159E0,1.262639328E1,1.440823154E1
9.201122083E-1,7.458090820E0,1.663490753E0,1.359443024E1,1.559483420E1
9.300902083E-1,8.601862335E0,1.389410706E0,1.444047089E1,1.686563658E1
9.400682083E-1,9.534722443E0,9.096583557E-1,1.491064316E1,1.772189859E1
9.500462083E-1,1.019380188E1,7.584727478E-1,1.506661880E1,1.820691846E1
9.600242083E-1,1.019649628E1,5.228627014E-1,1.466275864E1,1.786724412E1
9.700012083E-1,9.944420471E0,6.993457031E-1,1.412058609E1,1.728500895E1
9.799792083E-1,9.486372986E0,1.037642212E0,1.343471237E1,1.647906157E1
9.899572083E-1,8.829389191E0,1.085093536E0,1.233045868E1,1.520446489E1
9.999352083E-1,8.159532166E0,1.095721436E0,1.116273697E1,1.387030163E1
1.009913208E0,7.608827362E0,9.388476562E-1,1.006267456E1,1.265041928E1
1.019891208E0,7.264543304E0,6.912625122E-1,9.169182587E0,1.171858962E1
1.029869208E0,6.444698181E0,4.784051514E-1,8.945397949E0,1.103554034E1
1.039847208E0,5.609435120E0,6.667135620E-1,7.541317749E0,9.422406419E0
1.049825208E0,4.724774780E0,1.293310547E0,6.127058716E0,7.844552084E0
1.059803208E0,3.673061829E0,1.769919434E0,5.183271332E0,6.594717560E0
1.069781208E0,2.758314056E0,2.219883728E0,4.328848114E0,5.592415059E0
1.079759208E0,2.772235107E0,2.181862793E0,4.400249634E0,5.639859003E0
1.089737208E0,3.371289368E0,1.343905334E0,4.637955322E0,5.889168288E0
1.099715208E0,3.367996216E0,9.584568787E-1,3.313359833E0,4.820828920E0
1.109693208E0,2.765349426E0,1.242416382E0,2.742746429E0,4.088204238E0
1.119670208E0,2.224224701E0,1.690584412E0,2.708168335E0,3.890941647E0
1.129648208E0,2.108215942E0,1.922003174E0,2.892734528E0,4.062829520E0
1.139626208E0,1.927990723E0,1.715432739E0,1.789079590E0,3.140169341E0
1.149604208E0,1.442550201E0,1.837728424E0,9.264234924E-1,2.513256320E0
1.159582208E0,1.333576813E0,2.106269989E0,1.863774261E0,3.112628291E0
1.169560208E0,1.351240082E0,1.902244263E0,1.799408112E0,2.946566230E0
1.179538208E0,1.091679840E0,1.939217377E0,1.714684296E0,2.809354221E0
1.189516208E0,1.008003845E0,1.814227295E0,1.911375275E0,2.821497452E0
1.199494208E0,9.142987061E-1,1.678759003E0,2.183958435E0,2.902386666E0
1.209472208E0,1.043330383E0,1.594035187E0,2.406695251E0,3.069473652E0
1.219450208E0,1.265917511E0,1.235979767E0,2.571203156E0,3.121102176E0
1.229428208E0,1.696571960E0,8.449928284E-1,3.239413605E0,3.753154646E0
1.239406208E0,2.859204254E0,1.333726501E-1,4.054618378E0,4.963140882E0
1.249384208E0,4.037853241E0,-5.477110291E-1,4.896168365E0,6.369985151E0
1.259362208E0,5.609584808E0,-1.302591248E0,6.165379028E0,8.436591980E0
1.269340208E0,7.423213348E0,-2.368225250E0,8.074958038E0,1.122129826E1
1.279318208E0,9.967921600E0,-3.857029266E0,1.103610031E1,1.536332145E1
1.289295208E0,1.309551773E1,-5.301076355E0,1.522798325E1,2.077222831E1
1.299273208E0,1.602492599E1,-6.539151764E0,1.901181473E1,2.571007309E1
1.309251208E0,1.847308502E1,-7.637417908E0,2.131342850E1,2.922066489E1
1.319229208E0,2.053355026E1,-8.803493042E0,2.191802124E1,3.129740934E1
1.329207208E0,2.153182434E1,-8.873098297E0,2.165397034E1,3.180009063E1
1.339185208E0,2.070868607E1,-8.295599213E0,1.993973511E1,2.992089038E1
1.349163208E0,1.901959854E1,-7.483238525E0,1.791025543E1,2.717574722E1
1.359141208E0,1.692695023E1,-6.872807922E0,1.588870926E1,2.421173712E1
1.369119208E0,1.464599350E1,-6.476432190E0,1.420905212E1,2.140902758E1
1.379097208E0,1.236548584E1,-5.917494507E0,1.308878174E1,1.895357984E1
1.389075208E0,1.024155258E1,-5.289999390E0,1.231040039E1,1.686473986E1
1.399053208E0,8.482261047E0,-4.624183960E0,1.137349869E1,1.492274446E1
1.409031208E0,7.057523804E0,-3.911216583E0,1.023825943E1,1.303565164E1
1.419009208E0,5.885910187E0,-3.047213287E0,8.962163086E0,1.114674009E1
1.428987208E0,4.946763153E0,-2.169288940E0,7.343578949E0,9.116163227E0
1.438964208E0,4.202959900E0,-1.571881256E0,5.910159760E0,7.420624703E0
1.448942208E0,3.605701904E0,-1.059796143E0,4.789140930E0,6.087702763E0
1.458920208E0,3.145708466E0,-5.873785400E-1,3.715124359E0,4.903329920E0
1.468898208E0,2.733914795E0,-2.974314880E-1,2.843786316E0,3.955992443E0
1.478876208E0,2.553539886E0,-4.535568237E-2,2.078727264E0,3.292981951E0
1.488854208E0,2.421514435E0,1.284329224E-1,1.388662262E0,2.794389030E0
1.498832208E0,2.332449646E0,3.502716064E-1,7.750881958E-1,2.482694758E0
1.508810208E0,2.352358246E0,6.219566345E-1,2.591111755E-1,2.446948707E0
1.518788208E0,1.779050446E0,1.030457153E0,-2.026785278E-1,2.065899566E0
1.528766208E0,1.229992218E0,1.475631409E0,-6.991960144E-1,2.044319930E0
1.538744208E0,1.083446960E0,1.589694214E0,-3.960763550E-1,1.964143958E0
1.548722208E0,1.062490540E0,1.678908691E0,-3.977229309E-1,2.026278379E0
1.558700208E0,1.045126648E0,1.802252197E0,-3.894900513E-1,2.119458703E0
1.568678208E0,9.803114319E-1,1.739981689E0,-1.911524963E-1,2.006261713E0
1.578656208E0,8.819659424E-1,1.727557526E0,-3.906875610E-2,1.940063219E0
1.588634208E0,7.774832153E-1,1.769021301E0,1.050814819E-1,1.935189560E0
1.598611208E0,8.488847351E-1,1.619781647E0,3.089575195E-1,1.854657010E0
1.608589208E0,9.192384338E-1,1.445094910E0,7.012916565E-1,1.850704888E0
1.618567208E0,1.085542603E0,1.291663971E0,1.028361511E0,1.975936728E0
1.628545208E0,1.448537750E0,8.135581970E-1,1.246607666E0,2.077057829E0
1.638523208E0,1.854643250E0,1.977388000E-1,1.478924561E0,2.380340327E0
1.648501208E0,2.386636963E0,-4.743635559E-1,1.755848694E0,3.000676826E0
1.658479208E0,3.281027069E0,-1.684896240E0,2.433938599E0,4.419057713E0
1.668458917E0,4.537214813E0,-3.320844269E0,3.439248047E0,6.591111594E0
1.678436917E0,6.275699615E0,-5.289700012E0,4.771777039E0,9.493955340E0
1.688414917E0,8.217461700E0,-7.375312958E0,6.288572845E0,1.270700856E1
1.698392917E0,1.021999741E1,-9.424701233E0,8.346194000E0,1.621518716E1
1.708370917E0,1.245020966E1,-1.136751114E1,1.099658249E1,2.012840919E1
1.718348917E0,1.487486755E1,-1.298295181E1,1.340432556E1,2.386408738E1
1.728326917E0,1.691003540E1,-1.421414154E1,1.594469284E1,2.724379465E1
1.738304917E0,1.818807770E1,-1.470257584E1,1.848041977E1,2.980768058E1
1.748282917E0,1.851110596E1,-1.409094772E1,2.039972855E1,3.094131181E1
1.758259917E0,1.821337509E1,-1.276949570E1,2.089894043E1,3.052134931E1
1.768237917E0,1.721884323E1,-1.156854309E1,2.021007294E1,2.896147095E1
1.778215917E0,1.562046707E1,-1.017958145E1,1.857382553E1,2.631748212E1
1.788193917E0,1.346479980E1,-8.793314209E0,1.712917969E1,2.349536136E1
1.798171917E0,1.107741440E1,-7.157815247E0,1.595008163E1,2.069658264E1
1.808149917E0,9.157207489E0,-5.796845398E0,1.486543716E1,1.839671404E1
1.818127917E0,7.765401764E0,-4.797673187E0,1.372391098E1,1.648225910E1
1.828105917E0,6.738986206E0,-3.933370514E0,1.214813782E1,1.443823366E1
1.838083917E0,5.940995636E0,-3.158432007E0,1.034364029E1,1.233944960E1
1.848061917E0,5.263055420E0,-2.372416534E0,8.466394043E0,1.024733822E1
1.858039917E0,4.692442017E0,-1.575024719E0,6.664890289E0,8.301835792E0
1.868017917E0,4.458328857E0,-1.002764740E0,5.434748383E0,7.100614291E0
1.877995917E0,4.248614960E0,-7.545808411E-1,4.562961273E0,6.280186056E0
1.887973917E0,3.951782227E0,-7.708969116E-2,3.305426331E0,5.152510923E0
1.897951917E0,3.591780853E0,3.189866638E-1,2.377955017E0,4.319411100E0
1.907929917E0,3.371588745E0,5.075944519E-1,1.591041412E0,3.762535790E0
1.917906917E0,3.237916718E0,6.499484253E-1,8.095166016E-1,3.400272747E0
1.927884917E0,2.917133789E0,8.629554749E-1,-9.430389404E-3,3.042112856E0
1.937862917E0,2.292333069E0,1.216071167E0,-8.716374207E-1,2.737402377E0
1.947840917E0,1.940414886E0,1.492246857E0,-8.695417786E-1,2.597713132E0
1.957818917E0,1.720971222E0,1.286724243E0,-4.155358887E-1,2.188623152E0
1.967796917E0,1.282982025E0,1.778302002E0,-2.941383362E-1,2.212446214E0
1.977774917E0,9.324110413E-1,2.034868469E0,-6.137237549E-3,2.238329221E0
1.987752917E0,9.913883972E-1,1.932481384E0,2.891986084E-1,2.191111839E0
1.997730917E0,1.262474670E0,1.706002350E0,5.330415344E-1,2.188245779E0
2.007708917E0,1.456022186E0,1.397942963E0,7.229965210E-1,2.144054361E0
2.017686917E0,1.554667053E0,1.213376770E0,9.126521301E-1,2.173063907E0
2.027664917E0,1.527872772E0,1.116827545E0,1.089584198E0,2.183779453E0
2.037642917E0,1.575024719E0,1.060394897E0,1.331930237E0,2.319305577E0
2.047620917E0,1.839225311E0,8.584648132E-1,1.696272583E0,2.645194181E0
2.057598917E0,2.377805328E0,2.963836670E-1,1.989363098E0,3.114380676E0
2.067576917E0,3.140918427E0,-6.882687378E-1,2.495011597E0,4.069909739E0
2.077554917E0,3.988755341E0,-1.722617798E0,3.388353882E0,5.509856919E0
2.087531917E0,5.148244171E0,-2.926264801E0,4.832251282E0,7.643173175E0
2.097509917E0,6.740183716E0,-4.782404938E0,7.057224426E0,1.086765339E1
2.107487917E0,8.481811981E0,-7.029082947E0,9.431586914E0,1.450186103E1
2.117465917E0,1.042387344E1,-9.114546204E0,1.251712051E1,1.866575463E1
2.127443917E0,1.225546463E1,-1.057086777E1,1.529489410E1,2.226821601E1
2.137421917E0,1.349234253E1,-1.149324966E1,1.731838623E1,2.478032680E1
2.147399917E0,1.455498276E1,-1.217223770E1,1.864657425E1,2.660273717E1
2.157377917E0,1.522469009E1,-1.189935516E1,1.928170349E1,2.729780085E1
2.167355917E0,1.520867340E1,-1.143008102E1,1.865585495E1,2.664566424E1
2.177333917E0,1.459899124E1,-1.074465637E1,1.775697418E1,2.537495454E1
2.187311917E0,1.339953552E1,-9.838740234E0,1.681154022E1,2.364267849E1
2.197289917E0,1.195743439E1,-8.937614136E0,1.601489685E1,2.189379146E1
2.207267917E0,1.042252625E1,-8.121361542E0,1.534054916E1,2.024643216E1
2.217245917E0,8.984317017E0,-7.172634430E0,1.467114120E1,1.863885783E1
2.227223917E0,7.734116821E0,-6.224655762E0,1.383602783E1,1.702934434E1
2.237201917E0,6.574627991E0,-5.324727173E0,1.266995270E1,1.523503049E1
2.247178917E0,5.655090179E0,-4.393663330E0,1.120569763E1,1.329857067E1
2.257156917E0,4.888384552E0,-3.582649841E0,9.564660187E0,1.132318011E1
2.267134917E0,4.298610992E0,-2.857857056E0,7.978109436E0,9.502401464E0
2.277112917E0,3.899241486E0,-2.207010498E0,6.581663361E0,7.961989205E0
2.287090917E0,3.644022217E0,-1.680106201E0,5.306914215E0,6.653194214E0
2.297068917E0,3.392844543E0,-1.247805176E0,4.235891418E0,5.568768981E0
2.307046917E0,3.131038971E0,-8.433462524E-1,3.403771820E0,4.701095675E0
2.317024917E0,2.864143982E0,-5.177732849E-1,2.691552887E0,3.964324264E0
2.327002917E0,2.642454987E0,-3.192860413E-1,2.082469482E0,3.379525274E0
2.336980917E0,2.486329651E0,-1.438508606E-1,1.662742310E0,2.994535054E0
2.346958917E0,2.275867310E0,-1.616638184E-2,1.309027863E0,2.625526101E0
2.356936917E0,1.980681152E0,2.095642090E-1,1.028960266E0,2.241823859E0
2.366914917E0,1.639091492E0,5.324427795E-1,8.512797546E-1,1.922184552E0
2.376892917E0,1.346300354E0,8.167016602E-1,7.566764832E-1,1.747021907E0
2.386870917E0,1.130748596E0,1.043480072E0,6.463558960E-1,1.668897538E0
2.396848917E0,1.070723419E0,1.098266144E0,6.725514221E-1,1.674802251E0
2.406825917E0,1.012494507E0,1.155297546E0,6.987469482E-1,1.687632912E0
2.416803917E0,9.798623657E-1,1.164278870E0,7.921527100E-1,1.715570301E0
2.426781917E0,9.348060608E-1,1.165775757E0,9.966275024E-1,1.796151960E0
2.436759917E0,9.572593689E-1,1.151854706E0,1.185534668E0,1.910132773E0
2.446737917E0,1.058598633E0,1.048569489E0,1.292711792E0,1.972620799E0
2.456715917E0,1.266067200E0,8.020321655E-1,1.383872223E0,2.039922567E0
2.466693917E0,1.617386627E0,4.137396240E-1,1.411414948E0,2.186140922E0
2.476671917E0,2.070494385E0,-1.862127686E-1,1.486708374E0,2.555762896E0
2.486649917E0,2.625989227E0,-9.458830261E-1,2.001787262E0,3.434773117E0
2.496627917E0,3.317850494E0,-1.826950836E0,2.687211914E0,4.644027254E0
2.506605917E0,3.939208374E0,-2.805765381E0,3.688030701E0,6.082043442E0
2.516583917E0,4.489763489E0,-3.642225952E0,5.174739075E0,7.758976129E0
2.526561917E0,5.416636047E0,-4.632267151E0,7.119494934E0,1.007397901E1
2.536539917E0,6.570736084E0,-5.821244659E0,9.458530884E0,1.290446700E1
2.546517917E0,8.175249481E0,-7.018155670E0,1.178768738E1,1.596993384E1
2.556495917E0,9.781110077E0,-8.244106293E0,1.446801361E1,1.931214180E1
2.566473917E0,1.107247467E1,-9.316775665E0,1.657413391E1,2.200236167E1
2.576450917E0,1.253463409E1,-1.005504044E1,1.760025009E1,2.383253435E1
2.586428917E0,1.355416397E1,-1.067056046E1,1.829330887E1,2.514401262E1
2.596406917E0,1.386566620E1,-1.073043594E1,1.833043167E1,2.536540321E1
2.606384917E0,1.357826385E1,-1.009246262E1,1.783032166E1,2.457941052E1
2.616362917E0,1.299238220E1,-9.422605591E0,1.708846436E1,2.344361545E1
2.626340917E0,1.223660385E1,-8.692274323E0,1.609078903E1,2.200462675E1
2.636318917E0,1.140912460E1,-7.794291687E0,1.495974106E1,2.036450244E1
2.646296917E0,1.058718384E1,-7.022945709E0,1.380983231E1,1.876490598E1
2.656274917E0,9.632319489E0,-6.295907593E0,1.287802002E1,1.727030488E1
2.666252917E0,8.514444122E0,-5.309758301E0,1.192165878E1,1.558252996E1
2.676229917E0,7.439529419E0,-4.307143250E0,1.085213287E1,1.384438041E1
2.686207917E0,6.557264099E0,-3.456611938E0,9.698781281E0,1.220705685E1
2.696185917E0,5.844596100E0,-2.745590515E0,8.466992798E0,1.064835846E1
2.706163917E0,5.237009583E0,-2.100282440E0,7.260950775E0,9.195589261E0
2.716141917E0,4.725373535E0,-1.500180359E0,6.037395172E0,7.812159536E0
2.726118917E0,4.318818970E0,-9.901908875E-1,4.860542450E0,6.577047073E0
2.736096917E0,4.000281372E0,-5.770500183E-1,3.805686035E0,5.551439811E0
2.746074917E0,3.687431946E0,-1.835183716E-1,2.874023438E0,4.678765229E0
2.756052917E0,3.366349640E0,1.860630798E-1,2.076481934E0,3.959634653E0
2.766030917E0,3.120411072E0,4.586462402E-1,1.462309113E0,3.476444962E0
2.776008917E0,3.323538666E0,3.932322693E-1,1.945653992E0,3.871189783E0
2.785986917E0,3.146307220E0,1.866618347E-1,1.078956299E0,3.331401876E0
2.795964917E0,2.661465454E0,5.944139099E-1,2.137554932E-1,2.735400824E0
2.805942917E0,2.256108398E0,9.210346985E-1,1.993853760E-1,2.445012178E0
2.815920917E0,2.050286407E0,1.112486572E0,-5.613327026E-2,2.333334882E0
2.825898917E0,1.649569702E0,1.519041138E0,-5.242098999E-1,2.302902994E0
2.835876917E0,1.680555267E0,1.359323273E0,-9.310638428E-2,2.163491291E0
2.845854917E0,1.808988190E0,1.194965057E0,1.481918335E-2,2.168086568E0
2.855832917E0,1.951940918E0,1.255738678E0,9.131011963E-2,2.322776466E0
2.865810917E0,2.264191589E0,1.080453186E0,4.556524658E-1,2.549816035E0
2.875788917E0,2.661465454E0,6.545887756E-1,9.336085510E-1,2.895429114E0
2.885766917E0,3.196153564E0,2.839595032E-1,1.302142181E0,3.462889670E0
2.895743917E0,3.726650391E0,-2.668949890E-1,1.861229553E0,4.174126438E0
2.905721917E0,4.219425659E0,-9.589059448E-1,2.837050323E0,5.174157713E0
2.915699917E0,4.597539368E0,-1.514700165E0,3.841910706E0,6.179964619E0
2.925677917E0,5.309758301E0,-2.209555206E0,5.040318604E0,7.647253039E0
2.935655917E0,6.547833710E0,-3.468886414E0,6.897805939E0,1.012358761E1
2.945633917E0,7.654332733E0,-4.510420532E0,9.270521851E0,1.284037688E1
2.955611917E0,8.768914948E0,-5.020260315E0,1.149130371E1,1.530186080E1
2.965589917E0,1.011132339E1,-5.457950134E0,1.387674316E1,1.801643920E1
2.975567917E0,1.193602890E1,-6.373446350E0,1.628553406E1,2.117329034E1
2.985545917E0,1.413914749E1,-7.858807526E0,1.830887650E1,2.443135907E1
2.995523917E0,1.611084732E1,-9.420360260E0,1.968182144E1,2.712336049E1
3.005501917E0,1.715178268E1,-1.030502060E1,2.024764481E1,2.846654561E1
3.015479917E0,1.701930817E1,-1.002300705E1,1.992985565E1,2.805916369E1
3.025457917E0,1.557690765E1,-8.828790436E0,1.859687759E1,2.581533360E1
3.035435917E0,1.359053833E1,-7.474855957E0,1.685435120E1,2.290513824E1
3.045412917E0,1.166584076E1,-6.446644135E0,1.519190826E1,2.021002568E1
3.055390917E0,9.889484711E0,-5.676046600E0,1.377255981E1,1.788023536E1
3.065368917E0,8.346643066E0,-5.033283234E0,1.257534943E1,1.591036781E1
3.075346917E0,7.068451080E0,-4.329596558E0,1.149878815E1,1.417499686E1
3.085324917E0,6.066584473E0,-3.598217468E0,1.038046371E1,1.255008538E1
3.095302917E0,5.204527130E0,-2.982547760E0,9.249116364E0,1.102401230E1
3.105280917E0,4.416865082E0,-2.306254120E0,8.181536407E0,9.579407247E0
3.115258917E0,3.833827515E0,-1.615141296E0,7.091203766E0,8.221440608E0
3.125236917E0,3.489393768E0,-1.212927704E0,5.963448944E0,7.014968695E0
3.135214917E0,3.279679871E0,-9.909393311E-1,4.956492920E0,6.025369937E0
3.145192917E0,3.196303253E0,-6.408174133E-1,4.246369629E0,5.353378043E0
3.155170917E0,2.849474487E0,-3.255729675E-1,3.455264740E0,4.490474032E0
3.165148917E0,2.645897827E0,-1.893562317E-1,2.763253784E0,3.830431121E0
3.175126917E0,2.524949341E0,-1.228944397E-1,2.276915131E0,3.402177939E0
3.185104917E0,2.301613770E0,-8.532257080E-3,1.901795197E0,2.985686473E0
3.195082917E0,2.067500610E0,1.275347900E-1,1.560654602E0,2.593543268E0
3.205059917E0,1.828747101E0,2.483335876E-1,1.311123505E0,2.263852993E0
3.215037917E0,1.607956238E0,2.703378296E-1,1.131946106E0,1.984920097E0
3.225015917E0,1.469194794E0,2.875520325E-1,7.887098694E-1,1.692123746E0
3.234993917E0,1.325044556E0,3.159928894E-1,7.723937988E-1,1.565945964E0
3.244971917E0,1.109492798E0,4.010160828E-1,7.364685059E-1,1.390745853E0
3.254949917E0,1.016087036E0,4.718188477E-1,6.253994751E-1,1.283031720E0
3.264927917E0,1.159488831E0,2.803669739E-1,5.391787720E-1,1.309096534E0
3.274905917E0,1.382075958E0,-7.783813477E-3,5.680686951E-1,1.494287986E0
3.284883917E0,1.625020752E0,-2.812651062E-1,8.427474976E-1,1.852032896E0
3.294861917E0,2.014211426E0,-4.614903259E-1,1.045875092E0,2.316004252E0
3.304839917E0,2.462978210E0,-8.575666809E-1,1.517993317E0,3.017612630E0
3.314817917E0,3.053799591E0,-1.351838837E0,2.413281555E0,4.120326206E0
3.324795917E0,3.886967010E0,-1.717827759E0,3.496578827E0,5.503227075E0
3.334773917E0,4.918172607E0,-2.114652557E0,5.032085724E0,7.347248735E0
3.344751917E0,5.804479523E0,-2.649640045E0,7.373067627E0,9.750625679E0
3.354729917E0,6.449787598E0,-3.075354767E0,9.871971130E0,1.218660662E1
3.364706917E0,7.610174561E0,-3.186573486E0,1.257475067E1,1.503972612E1
3.374684917E0,9.043743439E0,-3.643273773E0,1.570234680E1,1.848313919E1
3.384662917E0,1.041593994E1,-4.586612091E0,1.801563629E1,2.130943374E1
3.394640917E0,1.220307358E1,-5.079836426E0,1.950638626E1,2.356308231E1
3.404618917E0,1.354652985E1,-5.438640289E0,2.041754150E1,2.509906931E1
3.414596917E0,1.419318512E1,-6.058950348E0,2.001981857E1,2.527747058E1
3.424574917E0,1.446427139E1,-6.024821320E0,1.911944092E1,2.471976213E1
3.434552917E0,1.410157562E1,-5.645809479E0,1.800545746E1,2.355686944E1
3.444530917E0,1.327110260E1,-5.257666626E0,1.658191772E1,2.187979017E1
3.454508917E0,1.216086136E1,-4.838837585E0,1.519145920E1,2.005196576E1
3.464486917E0,1.080947159E1,-4.347708893E0,1.391192001E1,1.814631552E1
3.474464917E0,9.257947998E0,-3.746858368E0,1.264809814E1,1.611592180E1
3.484442917E0,7.739655304E0,-3.132535858E0,1.132859207E1,1.407309644E1
3.494420917E0,6.409671021E0,-2.641706543E0,1.016850449E1,1.230694842E1
3.504398917E0,5.339246979E0,-2.100282440E0,9.044042816E0,1.071043674E1
3.514375917E0,4.489763489E0,-1.527274017E0,7.842192078E0,9.164634128E0
3.524353917E0,3.828887787E0,-1.158590698E0,6.928941193E0,8.000808718E0
3.534331917E0,3.353027344E0,-8.898994446E-1,6.095474396E0,7.013524185E0
3.544309917E0,2.965932312E0,-2.622546387E-1,4.994214478E0,5.814439803E0
3.554287917E0,2.581082611E0,-1.579216003E-1,4.187092896E0,4.921247158E0
3.564265917E0,2.356848907E0,5.433700562E-2,3.486549683E0,4.208766799E0
3.574243917E0,2.193837891E0,2.359094238E-1,2.769540710E0,3.541035681E0
3.584221917E0,2.135608978E0,2.046244812E-1,2.095791779E0,2.999173230E0
3.594199917E0,2.053729248E0,2.983296204E-1,1.582808533E0,2.609997555E0
3.604177917E0,1.858385468E0,4.655319214E-1,1.168470154E0,2.244022954E0
3.614155917E0,1.661694489E0,5.674699402E-1,6.652166748E-1,1.877701768E0
3.624133917E0,1.596579895E0,8.601113892E-1,2.275268555E-1,1.827738338E0
3.634111917E0,1.665885773E0,8.743318176E-1,1.281335449E-1,1.885749119E0
3.644089917E0,1.707349548E0,8.530760193E-1,2.993774414E-1,1.931944106E0
3.654067917E0,1.856289825E0,9.551637268E-1,7.150630188E-1,2.206686381E0
3.664044917E0,2.063009949E0,9.096583557E-1,1.294208679E0,2.599704691E0
3.674019042E0,2.432890778E0,7.138655090E-1,1.915267181E0,3.177547777E0
3.683997042E0,2.988235931E0,4.216731262E-1,2.302960968E0,3.796181164E0
3.693975042E0,3.444187775E0,-1.227447510E-2,2.867137756E0,4.481412613E0
3.703953042E0,3.828887787E0,-3.811074829E-1,3.455414429E0,5.171606469E0
3.713931042E0,4.203708344E0,-6.509962463E-1,3.911366272E0,5.778732219E0
3.723909042E0,4.375700684E0,-9.415420532E-1,4.712799683E0,6.499518348E0
3.733887042E0,4.726720734E0,-1.139131165E0,5.929768982E0,7.668224624E0
3.743865042E0,5.099595337E0,-1.353934479E0,7.203021240E0,8.928747178E0
3.753843042E0,5.700595551E0,-1.833387451E0,9.297166443E0,1.105872520E1
3.763821042E0,6.720873871E0,-2.348915405E0,1.151495453E1,1.353815818E1
3.773799042E0,7.845485229E0,-3.016826477E0,1.404035294E1,1.636411901E1
3.783777042E0,9.388626251E0,-3.560495911E0,1.662877029E1,1.942522678E1
3.793755042E0,1.136287079E1,-5.007536774E0,1.924697571E1,2.290494119E1
3.803733042E0,1.358155701E1,-6.155200195E0,2.094339798E1,2.570935820E1
3.813710042E0,1.527274017E1,-6.832391968E0,2.114832184E1,2.696645488E1
3.823688042E0,1.604049362E1,-6.880591736E0,2.044403641E1,2.688119422E1
3.833666042E0,1.580368607E1,-6.173611908E0,1.920176971E1,2.562377680E1
3.843644042E0,1.488519608E1,-5.739664307E0,1.775427979E1,2.386896016E1
3.853622042E0,1.368963226E1,-5.406157837E0,1.660631699E1,2.219014056E1
3.863600042E0,1.217762650E1,-5.053191833E0,1.606279724E1,2.078082746E1
3.873578042E0,1.042387344E1,-4.539909210E0,1.562301178E1,1.932217406E1
3.883556042E0,8.699758759E0,-3.972738647E0,1.520373367E1,1.796168067E1
3.893534042E0,7.254364471E0,-3.503165131E0,1.461396011E1,1.668729457E1
3.903512042E0,6.008804626E0,-2.870281219E0,1.364188156E1,1.518042094E1
3.913490042E0,4.982538757E0,-2.392025757E0,1.234782257E1,1.352834809E1
3.923468042E0,4.134552155E0,-1.968406677E0,1.084764221E1,1.177456954E1
3.933446042E0,3.408412170E0,-1.556313629E0,9.369017029E0,1.009048392E1
3.943424042E0,2.799478455E0,-9.322613525E-1,7.737409973E0,8.280924099E0
3.953402042E0,1.942360840E0,-2.514770508E-2,6.211932220E0,6.508571268E0
3.963379042E0,1.614392853E0,2.514770508E-2,5.006938019E0,5.260829309E0
3.973357042E0,1.231339417E0,3.932322693E-1,3.940106506E0,4.146717697E0
3.983335042E0,8.099656677E-1,8.075706482E-1,2.891237640E0,3.109255510E0
3.993313042E0,4.914280701E-1,1.160087585E0,2.135608978E0,2.479542390E0
4.003291042E0,2.127076721E-1,1.302591248E0,1.558109894E0,2.041983093E0
4.013269042E0,-1.095721436E-1,1.593286743E0,1.028062134E0,1.899336845E0
4.023247042E0,-3.641926575E-1,1.823957062E0,5.066963196E-1,1.927743970E0
4.033225042E0,-5.057981873E-1,1.884131927E0,2.863545227E-1,1.971746393E0
4.043203042E0,-5.083428955E-1,1.888023834E0,1.182540894E-1,1.958833971E0
4.053181042E0,-3.826043701E-1,1.942360840E0,3.936813354E-2,1.980076157E0
4.063159042E0,-2.621049500E-1,2.041155396E0,1.347198486E-1,2.062320002E0
4.073137042E0,-4.026626587E-2,2.150278473E0,1.064286804E-1,2.153287242E0
4.083115042E0,2.192939758E-1,2.176623688E0,-6.990463257E-2,2.188759279E0
4.093093042E0,4.101470947E-1,2.191592560E0,-1.892065430E-1,2.237654509E0
4.103071042E0,5.475613403E-1,2.329605560E0,-3.414399719E-1,2.417326362E0
4.113048042E0,6.694079590E-1,2.432741089E0,-4.340972900E-1,2.560229810E0
4.123026042E0,7.370672607E-1,2.473306732E0,-5.273533630E-1,2.634125264E0
4.133004042E0,7.303312683E-1,2.521207123E0,-6.833290100E-1,2.712343572E0
4.142982042E0,8.289761353E-1,2.515069885E0,-5.092410278E-1,2.696683961E0
4.152960042E0,9.970765686E-1,2.445614319E0,-3.203338623E-2,2.641252964E0
4.162938042E0,1.218615875E0,2.190544739E0,9.050180054E-1,2.665064445E0
4.172916042E0,1.493144989E0,1.823058929E0,2.358944550E0,3.334313304E0
4.182894042E0,2.468367004E0,7.461982727E-1,4.079317017E0,4.826020602E0
4.192872042E0,3.837120667E0,-9.993218994E-1,6.229595490E0,7.384443055E0
4.202850042E0,5.559289398E0,-3.304228821E0,8.984017639E0,1.106960702E1
4.212828042E0,7.543712769E0,-5.583389282E0,1.224169327E1,1.542533281E1
4.222806042E0,9.609117737E0,-7.665409698E0,1.609138779E1,2.024910888E1
4.232784042E0,1.124820923E1,-9.122330017E0,1.964395020E1,2.440540709E1
4.242762042E0,1.240036331E1,-1.014964371E1,2.246558258E1,2.759504808E1
4.252740042E0,1.358679611E1,-9.959688721E0,2.503439072E1,3.017477666E1
4.262717042E0,1.403571259E1,-9.135951691E0,2.603730515E1,3.095816694E1
4.272695042E0,1.302531372E1,-7.670349426E0,2.527913177E1,2.945382082E1
4.282673042E0,1.186238205E1,-7.027436371E0,2.329964813E1,2.707350315E1
4.292651042E0,1.023346939E1,-6.737339630E0,2.152748337E1,2.476990475E1
4.302629042E0,8.107889557E0,-6.211333466E0,1.982163071E1,2.229833134E1
4.312607042E0,6.188730469E0,-5.531147919E0,1.849583771E1,2.027288817E1
4.322585042E0,4.752616882E0,-4.766537933E0,1.672277481E1,1.802660391E1
4.332563042E0,3.948489075E0,-3.908671875E0,1.502455627E1,1.601891298E1
4.342541042E0,3.558549957E0,-3.472928009E0,1.303848633E1,1.395444848E1
4.352519042E0,3.479813690E0,-3.218157806E0,1.098805023E1,1.196674103E1
4.362497042E0,3.345692596E0,-2.523302765E0,9.228908386E0,1.013575186E1
4.372475042E0,3.135679321E0,-1.811532898E0,7.561376038E0,8.383826324E0
4.382453042E0,3.037184143E0,-1.342408447E0,6.122418365E0,6.964951873E0
4.392431042E0,2.986289978E0,-8.050259399E-1,4.766238556E0,5.681815253E0
4.402408042E0,2.936593323E0,-3.668870544E-1,3.555855560E0,4.626261473E0
4.412386042E0,2.983296204E0,-8.756790161E-2,2.453847198E0,3.863818118E0
4.422364042E0,2.980152740E0,2.374063110E-1,1.427731018E0,3.313017955E0
4.432342042E0,2.844235382E0,5.388793945E-1,4.721182251E-1,2.933080553E0
4.442320042E0,2.654280396E0,6.448590088E-1,-1.790277100E-1,2.737352458E0
4.452298042E0,2.455344086E0,4.691244507E-1,-4.641847229E-1,2.542490863E0
4.462276042E0,1.977537689E0,1.350641327E0,-1.171014862E0,2.665738756E0
4.472254042E0,1.591789856E0,1.265318756E0,-1.126707001E0,2.324713997E0
4.482232042E0,1.605112152E0,1.056802368E0,-7.966433716E-1,2.080350194E0
4.492210042E0,1.582509155E0,1.098565521E0,-6.053411865E-1,2.019311611E0
4.502188042E0,1.610950012E0,1.093625793E0,-2.447410583E-1,1.962415732E0
4.512166042E0,1.774859161E0,9.894424438E-1,1.642085266E-1,2.038648040E0
4.522144042E0,1.912872162E0,6.415658569E-1,4.435276794E-1,2.065769459E0
4.532122042E0,2.032024384E0,6.357279968E-1,7.491920471E-1,2.257113622E0
4.542099042E0,2.322719879E0,2.079176331E-1,1.272054749E0,2.656384886E0
4.552077042E0,3.144810333E0,-7.533833313E-1,1.836530914E0,3.718906328E0
4.562055042E0,3.900588684E0,-1.747765503E0,2.486030273E0,4.944655990E0
4.572033042E0,4.687951355E0,-2.722987518E0,3.185375977E0,6.287938378E0
4.582011042E0,5.747148743E0,-4.073179779E0,4.171525269E0,8.186704786E0
4.591989042E0,6.953190765E0,-5.521268463E0,5.723198547E0,1.056344020E1
4.601967042E0,7.999365234E0,-6.553222504E0,7.460635529E0,1.275130001E1
4.611945042E0,8.961863708E0,-7.280110931E0,9.487420807E0,1.494410151E1
4.621923042E0,9.988578644E0,-7.784262543E0,1.151001480E1,1.711276972E1
4.631901042E0,1.104238724E1,-8.075257416E0,1.309881088E1,1.893998270E1
4.641879042E0,1.212598389E1,-8.875942383E0,1.470392303E1,2.102444270E1
4.651857042E0,1.293535080E1,-9.295968933E0,1.625350067E1,2.275773765E1
4.661835042E0,1.306483154E1,-9.086554413E0,1.691437637E1,2.322394072E1
4.671813542E0,1.270902145E1,-8.336613922E0,1.663071625E1,2.252995963E1
4.681791542E0,1.219214630E1,-7.739804993E0,1.580593140E1,2.140982205E1
4.691768542E0,1.157902130E1,-7.270081787E0,1.496423172E1,2.026958447E1
4.701746542E0,1.073013657E1,-5.883515167E0,1.437760162E1,1.888033395E1
4.711724542E0,9.908644867E0,-4.845124512E0,1.396835266E1,1.779807154E1
4.721702542E0,9.398954773E0,-4.394262085E0,1.321197556E1,1.679899367E1
4.731680542E0,9.170978851E0,-4.036206665E0,1.241982285E1,1.595775100E1
4.741658542E0,8.763376465E0,-3.550317078E0,1.120914047E1,1.466445869E1
4.751636542E0,8.055199127E0,-2.971171417E0,9.709409180E0,1.296096907E1
4.761614542E0,7.295229492E0,-2.444865875E0,8.428522797E0,1.141217503E1
4.771592542E0,6.549629974E0,-1.966610413E0,7.304659882E0,1.000616137E1
4.781570542E0,5.854924622E0,-1.551673279E0,6.418802032E0,8.825466097E0
4.791548542E0,5.283712463E0,-1.255289612E0,5.838608551E0,7.973877301E0
4.801526542E0,4.837640076E0,-1.090482330E0,5.473966827E0,7.386218657E0
4.811504542E0,4.449946289E0,-8.250842285E-1,5.091811523E0,6.812439398E0
4.821482542E0,4.165687408E0,-6.818321228E-1,4.768633575E0,6.368493763E0
4.831459542E0,3.963607635E0,-6.903643799E-1,4.422702942E0,5.978887002E0
4.841437542E0,3.844006348E0,-7.188052368E-1,4.190386047E0,5.731701405E0
4.851415542E0,3.820954285E0,-7.578739929E-1,4.035458221E0,5.608831223E0
4.861393542E0,3.760180664E0,-8.038284302E-1,3.774550781E0,5.388165956E0
4.871371542E0,3.713926849E0,-9.364526367E-1,3.660637665E0,5.298156689E0
4.881349542E0,3.672163696E0,-9.261241150E-1,3.591331787E0,5.219210294E0
4.891327542E0,3.629053345E0,-9.253756714E-1,3.580105133E0,5.181071422E0
4.901305542E0,3.767814789E0,-1.080153809E0,3.582051086E0,5.309825846E0
4.911283542E0,4.010011139E0,-1.118623810E0,3.582350464E0,5.492243932E0
4.921261542E0,4.338577881E0,-1.183439026E0,3.584146729E0,5.750642897E0
4.931239542E0,4.678970032E0,-1.409768372E0,3.648512878E0,6.098512412E0
4.941217542E0,5.032085724E0,-1.638043671E0,3.930077362E0,6.591705536E0
4.951195542E0,5.370681610E0,-1.815424805E0,4.491110687E0,7.232569625E0
4.961173542E0,5.654491425E0,-2.023791504E0,4.884941711E0,7.741554162E0
4.971150542E0,5.805826721E0,-2.333647156E0,5.372178497E0,8.247050065E0
4.981128542E0,5.999972992E0,-2.280208282E0,5.855373688E0,8.688177412E0
4.991106542E0,6.011798401E0,-2.086660767E0,6.171965332E0,8.865045360E0
5.001084542E0,6.035898285E0,-1.870959320E0,6.365662537E0,8.969627440E0
5.011062542E0,6.310277710E0,-1.700763245E0,6.542594604E0,9.247580470E0
5.021040542E0,6.545887756E0,-1.733545074E0,6.630162506E0,9.476965754E0
5.031018542E0,6.326444092E0,-1.953288116E0,6.895410919E0,9.559598373E0
5.040996542E0,5.314847717E0,-2.369422760E0,7.185507660E0,9.246258206E0
5.050974542E0,5.876330109E0,-2.379751282E0,7.422165527E0,9.761301800E0
5.060952542E0,5.778882751E0,-3.040477295E0,7.833210754E0,1.019799876E1
5.070930542E0,5.987548828E0,-3.300636292E0,7.551346893E0,1.018664718E1
5.080908542E0,6.618187408E0,-3.345393219E0,8.098758545E0,1.098098130E1
5.090886542E0,7.256011047E0,-3.919449463E0,8.792416077E0,1.205480655E1
5.100864542E0,8.311615906E0,-4.335584106E0,8.980275421E0,1.298174084E1
5.110841542E0,9.352551270E0,-5.004243622E0,9.687105560E0,1.436498116E1
5.120819542E0,1.037791901E1,-5.879473572E0,1.028451324E1,1.574930554E1
5.130797542E0,1.108894043E1,-6.629414062E0,1.094943054E1,1.693528151E1
5.140775542E0,1.170086792E1,-6.954687653E0,1.164204025E1,1.791131184E1
5.150753542E0,1.221340210E1,-7.165299683E0,1.206416245E1,1.860249246E1
5.160731542E0,1.221250397E1,-7.094796295E0,1.222762253E1,1.868143839E1
5.170709542E0,1.171344177E1,-6.504873047E0,1.200129318E1,1.798747146E1
5.180687542E0,1.075079361E1,-5.778134308E0,1.151136200E1,1.677730176E1
5.190665542E0,9.428443451E0,-5.032085724E0,1.075513458E1,1.516213549E1
5.200643542E0,7.980803833E0,-4.266427917E0,1.001537292E1,1.349827144E1
5.210621542E0,6.593488770E0,-3.341800690E0,9.249715118E0,1.184056400E1
5.220599542E0,5.415887604E0,-2.689157867E0,8.555907898E0,1.047697325E1
5.230577542E0,4.560566254E0,-2.137405243E0,7.905360718E0,9.373472879E0
5.240555542E0,3.939358063E0,-1.692530365E0,7.254663849E0,8.426941826E0
5.250532542E0,3.524121552E0,-1.158590698E0,6.615493011E0,7.584623451E0
5.260510542E0,3.366499329E0,-1.051263885E0,6.058650970E0,7.010401206E0
5.270488542E0,3.492537231E0,-1.246607666E0,5.599855042E0,6.716414480E0
5.280466542E0,3.361110535E0,-6.387217712E-1,5.037474518E0,6.089431751E0
5.290444542E0,3.444487152E0,-7.304809570E-1,4.705464935E0,5.877031089E0
5.300422542E0,3.684887238E0,-8.343649292E-1,4.278253326E0,5.707714982E0
5.310400542E0,3.848796387E0,-7.839198303E-1,3.861819305E0,5.508303938E0
5.320378542E0,4.046086121E0,-7.587721252E-1,3.524420929E0,5.419233425E0
5.330356542E0,4.230951691E0,-8.898994446E-1,3.362757111E0,5.477317648E0
5.340334542E0,4.480931854E0,-1.083596649E0,3.348237305E0,5.697685936E0
5.350312542E0,4.725822601E0,-1.330283661E0,3.545527039E0,6.055891005E0
5.360290542E0,5.003944244E0,-1.607806549E0,3.782933350E0,6.475730432E0
5.370268542E0,5.288203125E0,-1.882635040E0,4.048032074E0,6.920691487E0
5.380246542E0,5.520669708E0,-2.180814972E0,4.337679749E0,7.351817025E0
5.390223542E0,5.731730804E0,-2.518662415E0,4.656516724E0,7.802534612E0
5.400201542E0,5.890400848E0,-2.773731995E0,5.072651367E0,8.253617584E0
5.410179542E0,5.997278595E0,-2.993325348E0,5.484744415E0,8.660818003E0
5.420157542E0,6.050567780E0,-3.374881897E0,5.955515442E0,9.136047420E0
5.430135542E0,5.905220032E0,-3.497476959E0,6.418053589E0,9.396562168E0
5.440113542E0,5.545817413E0,-3.268902283E0,6.815477142E0,9.375102218E0
5.450091542E0,5.127287750E0,-3.107388153E0,7.268584900E0,9.422168925E0
5.460069542E0,4.795577545E0,-2.949017487E0,7.420518951E0,9.314417300E0
5.470047542E0,4.467908936E0,-2.819836121E0,7.418722687E0,9.107751221E0
5.480025542E0,4.256398773E0,-2.717898102E0,7.355554047E0,8.922335790E0
5.490003542E0,4.186344452E0,-2.782863007E0,7.242688751E0,8.816254688E0
5.499981542E0,4.251309357E0,-2.950514374E0,7.218139801E0,8.881481211E0
5.509959542E0,4.292174377E0,-2.970572662E0,7.246580658E0,8.930845092E0
5.519937542E0,4.512067108E0,-3.178639984E0,6.972650299E0,8.892713530E0
5.529914542E0,4.870571594E0,-3.483406219E0,6.726412354E0,9.005621005E0
5.539892542E0,5.439688110E0,-3.786076813E0,6.590494995E0,9.346614823E0
5.549870542E0,6.349047089E0,-4.295317841E0,6.738237762E0,1.020607674E1
5.559848542E0,7.804320831E0,-5.132377167E0,7.154522095E0,1.176587886E1
5.569826542E0,9.609117737E0,-5.702990570E0,7.827971649E0,1.364318091E1
5.579804542E0,1.143232635E1,-5.978118439E0,8.349337463E0,1.536708893E1
5.589782542E0,1.280796570E1,-6.433022461E0,8.863518219E0,1.685199450E1
5.599760542E0,1.345536942E1,-7.323520660E0,9.863738251E0,1.822016063E1
5.609738542E0,1.320928116E1,-7.448061676E0,1.079255676E1,1.861284537E1
5.619716542E0,1.233330276E1,-6.998396759E0,1.129072083E1,1.812645280E1
5.629694542E0,1.118548965E1,-6.437363434E0,1.122889938E1,1.710681175E1
5.639672542E0,9.936786346E0,-5.842350769E0,1.078327606E1,1.578454396E1
5.649650542E0,8.618926849E0,-5.156477051E0,1.016970200E1,1.429328494E1
5.659627542E0,7.281757507E0,-4.428391113E0,9.469308472E0,1.273979761E1
5.669608208E0,6.052364044E0,-3.889811096E0,8.861871643E0,1.141466206E1
5.679586208E0,5.042863312E0,-3.562292175E0,8.347391510E0,1.038264614E1
5.689564208E0,4.109254761E0,-2.982248383E0,7.880512390E0,9.374553623E0
5.699542208E0,3.325783997E0,-2.469863892E0,7.371121674E0,8.455442127E0
5.709520208E0,3.137774963E0,-2.251318359E0,6.987469482E0,7.983658049E0
5.719498208E0,2.770738220E0,-1.650467834E0,6.527026978E0,7.280323861E0
5.729476208E0,2.938090210E0,-1.673220520E0,6.120921478E0,6.992690522E0
5.739454208E0,2.982098694E0,-1.589544525E0,5.760920105E0,6.678904467E0
5.749432208E0,3.016078033E0,-1.395997009E0,5.473817139E0,6.403765175E0
5.759410208E0,3.230132904E0,-1.526675262E0,5.238955536E0,6.341226304E0
5.769388208E0,3.434158630E0,-1.700763245E0,4.968468018E0,6.274688483E0
5.779366208E0,3.499123535E0,-1.723815308E0,4.873565369E0,6.242358860E0
5.789344208E0,3.611240387E0,-1.795366516E0,4.736899567E0,6.221142625E0
5.799321208E0,3.745211792E0,-1.859283600E0,4.523742828E0,6.160178248E0
5.809299208E0,3.829935608E0,-1.868264923E0,4.495900726E0,6.194509175E0
5.819277208E0,3.971840515E0,-1.916165314E0,4.433480530E0,6.253235658E0
5.829255208E0,4.216282196E0,-2.086062012E0,4.502487030E0,6.511611147E0
5.839233208E0,4.493505707E0,-2.342029724E0,4.848267975E0,7.013016407E0
5.849211208E0,4.739144897E0,-2.227966919E0,4.773273926E0,7.085723317E0
5.859189208E0,4.923561401E0,-2.730921021E0,5.342839508E0,7.761785909E0
5.869167208E0,5.126239929E0,-2.750530243E0,5.563330994E0,8.049497138E0
5.879145208E0,5.195994873E0,-2.896626434E0,5.869594116E0,8.357089356E0
5.889123208E0,5.157524872E0,-2.992127838E0,6.213578796E0,8.611704434E0
5.899101208E0,5.077740784E0,-2.974464569E0,6.553072815E0,8.807590718E0
5.909079208E0,4.863985291E0,-2.876717834E0,6.721173248E0,8.781117710E0
5.919057208E0,4.663103027E0,-2.791544952E0,6.903045044E0,8.785743221E0
5.929035208E0,4.498146057E0,-2.759361877E0,7.050189056E0,8.806393226E0
5.939012208E0,4.395459595E0,-2.788551178E0,7.116650848E0,8.817187875E0
5.948990208E0,4.360133057E0,-2.921624451E0,7.233707428E0,8.937179245E0
5.958968208E0,4.504882050E0,-3.184777222E0,7.263495483E0,9.121136709E0
5.968946208E0,4.737498322E0,-3.593427429E0,7.354356537E0,9.457439987E0
5.978924208E0,5.087769928E0,-4.058210907E0,7.627089386E0,1.002631393E1
5.988902208E0,5.617069244E0,-4.597389679E0,7.903564453E0,1.073097339E1
5.998880208E0,6.651418304E0,-5.321733398E0,8.333470459E0,1.191675047E1
6.008858208E0,8.159232788E0,-6.278094635E0,8.861871643E0,1.358382571E1
6.018836208E0,9.572444000E0,-7.106172638E0,9.337283020E0,1.514312477E1
6.028814208E0,1.076037369E1,-8.092471619E0,9.942773895E0,1.673715900E1
6.038792208E0,1.154818542E1,-8.408614197E0,1.071456894E1,1.785685770E1
6.048770208E0,1.182615738E1,-8.295748901E0,1.162138321E1,1.854006461E1
6.058748208E0,1.160461807E1,-7.969277802E0,1.223465790E1,1.865109657E1
6.068725208E0,1.085108505E1,-7.293133850E0,1.249257156E1,1.808314664E1
6.078703208E0,9.584419098E0,-6.217919769E0,1.241054214E1,1.686846680E1
6.088681208E0,8.134085083E0,-5.092559967E0,1.162288010E1,1.507278504E1
6.098659208E0,6.904541931E0,-4.359983368E0,1.069855225E1,1.345886973E1
6.108637208E0,5.995931396E0,-3.721111908E0,9.796378326E0,1.207339619E1
6.118615208E0,5.206922150E0,-3.475921783E0,8.715775452E0,1.073120740E1
6.128593208E0,4.498744812E0,-2.449057159E0,7.750133514E0,9.289841513E0
6.138571208E0,4.043990479E0,-2.157313843E0,6.960974579E0,8.334448338E0
6.148549208E0,4.052971802E0,-2.188898163E0,6.254144440E0,7.767379112E0
6.158527208E0,3.564836884E0,-1.196461945E0,5.416785736E0,6.594023878E0
6.168505208E0,3.611090698E0,-1.477277985E0,5.067861328E0,6.395744266E0
6.178483208E0,3.859124908E0,-1.611848145E0,4.818330231E0,6.380219880E0
6.188461208E0,3.729045410E0,-1.524130554E0,4.890779572E0,6.336282698E0
6.198439208E0,3.797453156E0,-1.544188843E0,4.883744202E0,6.376215733E0
6.208416208E0,3.845802612E0,-1.810934143E0,4.704716492E0,6.340665381E0
6.218394208E0,3.834575958E0,-1.810335388E0,4.358187103E0,6.080713924E0
6.228372208E0,3.946543121E0,-1.876946869E0,4.065994720E0,5.969124326E0
6.238350208E0,4.148622894E0,-2.033072205E0,3.804189148E0,5.984672888E0
6.248328208E0,4.271217957E0,-2.224524078E0,3.723207550E0,6.087206639E0
6.258306208E0,4.482578430E0,-2.370919647E0,3.725003815E0,6.292092083E0
6.268284208E0,4.669988708E0,-2.531984711E0,3.801345062E0,6.532225149E0
6.278262208E0,4.830005951E0,-2.700085144E0,3.911965027E0,6.776642800E0
6.288240208E0,4.875062256E0,-2.818189545E0,4.083657990E0,6.955910212E0
6.298218208E0,4.817881165E0,-2.851869507E0,4.189487915E0,6.992635239E0
6.308196208E0,4.692741394E0,-2.861449585E0,4.261637878E0,6.954945933E0
6.318174208E0,4.497996368E0,-2.866988068E0,4.418661346E0,6.926482513E0
6.328152208E0,4.324806519E0,-2.892734528E0,4.681664429E0,6.999274698E0
6.338130208E0,4.276756439E0,-3.032992859E0,4.950505371E0,7.210908039E0
6.348108208E0,4.265829163E0,-3.178939362E0,5.322481842E0,7.525408086E0
6.358085208E0,4.364474030E0,-3.271746368E0,5.895639954E0,8.031906892E0
6.368063208E0,4.570894775E0,-3.374732208E0,6.351292419E0,8.521784550E0
6.378041208E0,4.711302795E0,-3.467239838E0,6.711593170E0,8.903011232E0
6.388019208E0,4.829706573E0,-3.629801788E0,7.086413727E0,9.312292205E0
6.397997208E0,5.041067047E0,-3.802392883E0,7.335495758E0,9.678845315E0
6.407975208E0,5.497018890E0,-4.223616943E0,7.306306458E0,1.007165681E1
6.417953208E0,6.028563538E0,-4.709656219E0,7.244934082E0,1.053629488E1
6.427931208E0,6.566694489E0,-5.168601837E0,7.332202606E0,1.111742401E1
6.437909208E0,7.185956726E0,-5.428760834E0,7.351662140E0,1.162567652E1
6.447887208E0,7.979456635E0,-5.725593567E0,7.367379456E0,1.227731363E1
6.457865208E0,9.695338440E0,-6.288722534E0,7.807314606E0,1.394638949E1
6.467843208E0,1.237282059E1,-6.913223877E0,7.703131256E0,1.613126110E1
6.477821208E0,1.547242493E1,-7.610174561E0,6.703360291E0,1.849988457E1
6.487798208E0,1.677741119E1,-7.851622467E0,6.019731903E0,1.947733744E1
6.497776208E0,1.576177322E1,-7.929759979E0,6.290518799E0,1.873193037E1
6.507754208E0,1.460767319E1,-8.057743835E0,7.543263702E0,1.830880059E1
6.517732208E0,1.405696838E1,-8.458161163E0,8.906179504E0,1.866705343E1
6.527710208E0,1.332214645E1,-8.402476959E0,9.261690216E0,1.827183928E1
6.537688208E0,1.168036057E1,-7.526947632E0,9.250313873E0,1.669293474E1
6.547666208E0,1.004336472E1,-6.293662262E0,9.047485657E0,1.491094753E1
6.557644208E0,8.650211792E0,-5.278922424E0,8.503067780E0,1.322858071E1
6.567622208E0,7.207661591E0,-4.606071625E0,7.543413391E0,1.140479579E1
6.577600208E0,6.052513733E0,-3.862118683E0,6.654262390E0,9.789182354E0
6.587578208E0,5.132526855E0,-3.085832977E0,6.013295288E0,8.486749514E0
6.597556208E0,4.393962708E0,-2.438878326E0,5.307213593E0,7.309004849E0
6.607534208E0,3.900438995E0,-1.989213409E0,4.631668396E0,6.373597609E0
6.617512208E0,3.583847351E0,-1.731000366E0,4.154760132E0,5.753464683E0
6.627489208E0,3.486100616E0,-1.608854370E0,3.762575684E0,5.375712573E0
6.637467208E0,3.470532990E0,-1.641037445E0,3.357967072E0,5.100347633E0
6.647445208E0,3.523822174E0,-1.749412079E0,3.140918427E0,5.034196450E0
6.657423208E0,3.631448364E0,-1.815125427E0,2.952909393E0,5.020136594E0
6.667401208E0,3.840713196E0,-1.887125702E0,2.858904877E0,5.146421899E0
6.677376167E0,4.149970093E0,-2.068548431E0,2.679577789E0,5.355490782E0
6.687354167E0,4.543352051E0,-2.260599060E0,2.424807587E0,5.624237531E0
6.697332167E0,4.891827393E0,-2.371967468E0,2.292782135E0,5.900258878E0
6.707310167E0,5.207969971E0,-2.468666382E0,2.256407776E0,6.189397464E0
6.717288167E0,5.505551147E0,-2.597099304E0,2.166145477E0,6.461285047E0
6.727266167E0,5.717061310E0,-2.775677948E0,2.166594543E0,6.714410622E0
6.737244167E0,5.817053375E0,-2.854264526E0,2.395618286E0,6.908250352E0
6.747222167E0,5.831124115E0,-2.871927795E0,2.671793976E0,7.027692420E0
6.757199167E0,5.860313416E0,-2.915636902E0,3.071612549E0,7.230422914E0
6.767177167E0,5.855972443E0,-2.971321106E0,3.558400269E0,7.468826871E0
6.777155167E0,5.759872284E0,-2.963237915E0,3.966601410E0,7.595448269E0
6.787133167E0,5.667065277E0,-2.968477020E0,4.436474304E0,7.785228894E0
6.797111167E0,5.620661774E0,-2.941533051E0,4.968018951E0,8.057646540E0
6.807089167E0,5.403912506E0,-2.780767365E0,5.320835266E0,8.077513568E0
6.817067167E0,5.154680786E0,-2.557132416E0,5.457800446E0,7.930778392E0
6.827045167E0,4.987029419E0,-2.264640656E0,5.544170837E0,7.793387582E0
6.837023167E0,4.971611481E0,-1.998643799E0,5.450316010E0,7.643130403E0
6.847001167E0,5.191504211E0,-2.004930725E0,5.058580627E0,7.520684886E0
6.856979167E0,5.402415619E0,-2.136656799E0,4.700824585E0,7.473228792E0
6.866957167E0,5.713917847E0,-2.350711670E0,4.516557770E0,7.653365051E0
6.876935167E0,6.314319305E0,-2.844385071E0,4.431833954E0,8.222062206E0
6.886913167E0,7.165000305E0,-3.525169373E0,4.476590881E0,9.154447793E0
6.896890167E0,8.292306061E0,-4.497098236E0,4.514761505E0,1.045797800E1
6.906868167E0,9.919272766E0,-5.390739899E0,4.830455017E0,1.227946841E1
6.916846167E0,1.204126007E1,-6.252048798E0,5.267097015E0,1.455411863E1
6.926824167E0,1.433509003E1,-7.494315491E0,5.610482941E0,1.712124673E1
6.936802167E0,1.534339325E1,-8.407416687E0,5.586383057E0,1.836605694E1
6.946780167E0,1.492291763E1,-8.332422638E0,6.127208405E0,1.815669079E1
6.956758167E0,1.480616043E1,-8.533604279E0,7.317233734E0,1.858996230E1
6.966736167E0,1.523307266E1,-9.165290680E0,8.963061218E0,1.990943300E1
6.976714167E0,1.528666122E1,-9.341923370E0,9.897867279E0,2.046756752E1
6.986692167E0,1.500315079E1,-9.323212280E0,1.066816544E1,2.063556577E1
6.996670167E0,1.401894745E1,-9.109456787E0,1.122126526E1,2.013528953E1
7.006648167E0,1.248478775E1,-8.356223145E0,1.127635071E1,1.878436785E1
7.016626167E0,1.068418213E1,-7.370223541E0,1.115345627E1,1.711348970E1
7.026603167E0,8.904383240E0,-6.373745728E0,1.047925827E1,1.515676514E1
7.036581167E0,7.411687317E0,-5.254223785E0,9.602381744E0,1.321914186E1
7.046559167E0,6.220314789E0,-4.036955109E0,8.834478607E0,1.153418115E1
7.056537167E0,5.579497375E0,-3.361559601E0,8.064479828E0,1.036661511E1
7.066515167E0,5.208119659E0,-2.436183929E0,7.385940857E0,9.360108165E0
7.076493167E0,4.811893616E0,-1.615889740E0,6.642436981E0,8.359867754E0
7.086471167E0,4.700375519E0,-1.383722534E0,5.793851624E0,7.587946673E0
7.096449167E0,4.711602173E0,-1.212628326E0,5.144801331E0,7.080864582E0
7.106427167E0,4.576582947E0,-1.096469879E0,4.557273102E0,6.551037764E0
7.116405167E0,4.552632751E0,-1.205592957E0,4.132456512E0,6.265549950E0
7.126383167E0,4.402195587E0,-3.493734741E-1,3.306174774E0,5.516536907E0
7.136361167E0,4.294419708E0,-6.258485413E-1,2.959196320E0,5.252672642E0
7.146339167E0,4.272864532E0,-7.087760925E-1,2.753224640E0,5.132249096E0
7.156316167E0,4.267775116E0,-5.824388123E-1,2.434237976E0,4.947590720E0
7.166294167E0,4.242777100E0,-7.652087402E-1,2.227068787E0,4.852477441E0
7.176272167E0,4.167633362E0,-9.737251282E-1,2.147135010E0,4.788266619E0
7.186250167E0,4.060007172E0,-1.037492523E0,2.167642365E0,4.717915047E0
7.196228167E0,4.113296356E0,-1.121318207E0,2.208956451E0,4.801671588E0
7.206206167E0,4.258793793E0,-1.585203552E0,2.384990387E0,5.132092557E0
7.216184167E0,4.384232941E0,-2.121538239E0,2.545756073E0,5.495752629E0
7.226162167E0,4.387526093E0,-2.389031982E0,3.100652161E0,5.879787653E0
7.236140167E0,4.543352051E0,-2.569706268E0,3.470233612E0,6.268010808E0
7.246118167E0,4.755910034E0,-3.099304962E0,3.974534912E0,6.929740202E0
7.256096167E0,4.869972839E0,-3.439547424E0,4.497547302E0,7.468269791E0
7.266074167E0,4.911735992E0,-3.629801788E0,5.020859070E0,7.906303642E0
7.276052167E0,4.697980499E0,-3.504961395E0,5.567073212E0,8.083815887E0
7.286030167E0,4.358037415E0,-3.276536407E0,5.830974426E0,7.983009689E0
7.296007167E0,4.107608185E0,-3.046913910E0,6.049519958E0,7.921667823E0
7.305985167E0,3.895648956E0,-2.821931763E0,6.296955414E0,7.924078946E0
7.315963167E0,3.757486267E0,-2.713706818E0,6.374494171E0,7.881439188E0
7.325941167E0,3.737427979E0,-2.792443085E0,6.396648102E0,7.917273092E0
7.335919167E0,3.848197632E0,-2.903212738E0,6.368356934E0,7.987066999E0
7.345897167E0,4.218976593E0,-3.097658386E0,6.368955688E0,8.243715639E0
7.355875167E0,4.798421631E0,-3.456911316E0,6.363267517E0,8.687131833E0
7.365853167E0,5.493875427E0,-4.005969543E0,6.345304871E0,9.300180272E0
7.375831167E0,6.469396820E0,-4.760700073E0,6.496939545E0,1.033090431E1
7.385809167E0,7.765551453E0,-5.591771851E0,6.806196442E0,1.174291326E1
7.395787167E0,9.067394257E0,-6.205794983E0,7.206763458E0,1.314028042E1
7.405765167E0,1.074121353E1,-7.649692383E0,7.805218964E0,1.532360613E1
7.415743167E0,1.247460892E1,-8.814270630E0,8.583450623E0,1.752092632E1
7.425720167E0,1.382225647E1,-9.497449951E0,9.327553253E0,1.919009065E1
7.435698167E0,1.479762817E1,-9.858050079E0,9.906698914E0,2.035420434E1
7.445676167E0,1.536839127E1,-9.831106110E0,1.051413574E1,2.105671266E1
7.455654167E0,1.528097305E1,-9.476343842E0,1.111378876E1,2.113824805E1
7.465632167E0,1.456067093E1,-9.180109863E0,1.137095398E1,2.062973944E1
7.475610167E0,1.320299423E1,-8.519084473E0,1.126242966E1,1.933225747E1
7.485588167E0,1.159069702E1,-7.618706818E0,1.101244949E1,1.771053344E1
7.495566167E0,9.963281250E0,-6.620582428E0,1.044707520E1,1.588208000E1
7.505544167E0,8.405321045E0,-5.702242126E0,9.580527191E0,1.396250294E1
7.515522167E0,7.118896179E0,-4.792284393E0,8.777746582E0,1.227572839E1
7.525500167E0,6.196514282E0,-3.908073120E0,7.872878265E0,1.075416370E1
7.535478167E0,5.521268463E0,-3.125201111E0,6.971303101E0,9.426046592E0
7.545456167E0,5.014422455E0,-2.437531128E0,6.200705566E0,8.338749311E0
7.555433167E0,4.683760071E0,-1.915416870E0,5.473517761E0,7.454248914E0
7.565411167E0,4.481979675E0,-1.533261566E0,4.792883148E0,6.738750753E0
7.575389167E0,4.392316132E0,-1.277593231E0,4.250411224E0,6.244251840E0
7.585367167E0,4.323908386E0,-1.144070892E0,3.781735840E0,5.857184298E0
7.595345167E0,4.249962158E0,-1.016236725E0,3.323538666E0,5.490066001E0
7.605323167E0,4.269272003E0,-9.436376953E-1,2.974614258E0,5.288238414E0
7.615301167E0,4.280798035E0,-9.361532593E-1,2.624791718E0,5.107949324E0
7.625279167E0,4.205953674E0,-9.726773071E-1,2.343227234E0,4.911910150E0
7.635257167E0,4.088298340E0,-9.915380859E-1,2.163451080E0,4.730523403E0
7.645235167E0,3.961811371E0,-1.035696259E0,2.063159637E0,4.585329189E0
7.655213167E0,3.830684052E0,-1.249451752E0,2.071392517E0,4.530555920E0
7.665191167E0,3.829636230E0,-1.445993042E0,2.105521545E0,4.603284753E0
7.675169292E0,3.928430786E0,-1.709594879E0,2.141446838E0,4.789684505E0
7.685146292E0,4.122726746E0,-2.071991272E0,2.254162445E0,5.135296679E0
7.695124292E0,4.318669281E0,-2.434986420E0,2.386038208E0,5.502112463E0
7.705102292E0,4.583618317E0,-2.891986084E0,2.495011597E0,5.966424662E0
7.715080292E0,5.000052338E0,-3.363954620E0,2.634072418E0,6.576857272E0
7.725058292E0,5.306016083E0,-3.595523071E0,2.896327057E0,7.033512867E0
7.735036292E0,5.506598969E0,-3.673061829E0,3.149750061E0,7.330412051E0
7.745014292E0,5.625451813E0,-3.701053619E0,3.441643066E0,7.562302096E0
7.754992292E0,5.640720062E0,-3.656895447E0,3.840563507E0,7.742127303E0
7.764970292E0,5.632636871E0,-3.535048828E0,4.211043091E0,7.871216695E0
7.774948292E0,5.679190063E0,-3.415148163E0,4.545747070E0,8.036183994E0
7.784926292E0,5.785469055E0,-3.388353882E0,4.891078949E0,8.299111248E0
7.794904292E0,5.960305481E0,-3.415597229E0,5.267097015E0,8.656434418E0
7.804882292E0,6.253845062E0,-3.504212952E0,5.527705078E0,9.052381449E0
7.814860292E0,6.574627991E0,-3.646566925E0,5.726940765E0,9.450980589E0
7.824837292E0,7.024592285E0,-4.157005463E0,5.868396606E0,1.005304282E1
7.834815292E0,7.651488647E0,-4.837340698E0,5.820047150E0,1.076188145E1
7.844793292E0,8.450976105E0,-5.400469666E0,5.738017731E0,1.155460589E1
7.854771292E0,1.063014450E1,-5.870791626E0,5.657934265E0,1.339695438E1
7.864749292E0,1.370460114E1,-6.692882080E0,5.051694946E0,1.606643659E1
7.874727292E0,1.513697250E1,-7.565567322E0,3.782783661E0,1.733998840E1
7.884705292E0,1.473026825E1,-8.024812317E0,2.443069611E0,1.695131277E1
7.894683292E0,1.313009583E1,-8.450826416E0,2.421514435E0,1.580125361E1
7.904661292E0,1.532842438E1,-8.797655182E0,3.748654633E0,1.806686863E1
7.914639292E0,1.654778870E1,-9.194779358E0,5.862858124E0,1.981782994E1
7.924617292E0,1.617551285E1,-8.416547699E0,5.412594452E0,1.902055913E1
7.934595292E0,1.572614731E1,-7.033124542E0,4.055217133E0,1.769806023E1
7.944572292E0,1.516167114E1,-6.025270386E0,4.081262970E0,1.681775438E1
7.954550292E0,1.463910782E1,-5.207371216E0,4.063000946E0,1.606014226E1
7.964528292E0,1.355072113E1,-4.657564545E0,3.522624664E0,1.475546798E1
7.974506292E0,1.197390015E1,-4.134851532E0,3.104843445E0,1.304267360E1
7.984484292E0,1.033301239E1,-3.777843933E0,3.057990875E0,1.141904366E1
7.994462292E0,8.975934448E0,-3.420387268E0,3.209625549E0,1.012759322E1
8.004440292E0,7.779322815E0,-3.286565552E0,3.078198853E0,8.988586361E0
8.014418292E0,6.612798615E0,-2.897075500E0,2.960094452E0,7.802839940E0
8.024396292E0,5.804030457E0,-2.374063110E0,3.080743561E0,6.986696364E0
8.034374292E0,5.304369507E0,-2.140698395E0,2.863694916E0,6.396848760E0
8.044352292E0,4.844226379E0,-1.815873871E0,2.571951599E0,5.777444258E0
8.054330292E0,4.526137848E0,-1.516346741E0,2.355801086E0,5.323065847E0
8.064308292E0,4.468807068E0,-1.466949463E0,1.917063446E0,5.079105196E0
8.074285292E0,4.454436951E0,-1.508113861E0,1.428778839E0,4.915061031E0
8.084263292E0,4.565655670E0,-1.597328339E0,9.469308472E-1,4.928828213E0
8.094241292E0,4.768184509E0,-1.712888031E0,5.792953491E-1,5.099524686E0
8.104219292E0,4.929998016E0,-1.805096283E0,2.297721863E-1,5.255097363E0
8.114197292E0,5.170847168E0,-1.988914032E0,-9.400451660E-2,5.540963482E0
8.124175292E0,5.480702820E0,-2.280058594E0,-1.766326904E-1,5.938684172E0
8.134153292E0,5.773793335E0,-2.503843231E0,-2.439926147E-1,6.298051508E0
8.144131292E0,6.037694550E0,-2.713257751E0,-3.963757324E-1,6.631186683E0
8.154109292E0,6.322252808E0,-2.882106628E0,-3.782633972E-1,6.958484201E0
8.164087292E0,6.560706940E0,-2.829416199E0,-2.270777893E-1,7.148428911E0
8.174065292E0,6.644382935E0,-2.572400665E0,-1.050814819E-1,7.125735884E0
8.184043292E0,6.760092316E0,-2.400558014E0,9.415420532E-2,7.174286857E0
8.194021292E0,6.813381500E0,-2.197580109E0,3.146456909E-1,7.165928252E0
8.203999292E0,6.812483368E0,-1.964065704E0,5.541476440E-1,7.111579525E0
8.213976292E0,6.790030060E0,-1.760339355E0,8.828640747E-1,7.069848077E0
8.223954292E0,6.950945435E0,-1.735191650E0,1.362915802E0,7.292741047E0
8.233932292E0,7.185956726E0,-1.818717957E0,1.929936676E0,7.659658259E0
8.243910292E0,7.458240509E0,-1.941462708E0,2.427951050E0,8.080196485E0
8.253888292E0,7.801925812E0,-2.217937775E0,2.859803009E0,8.600451593E0
8.263866292E0,8.251890106E0,-2.926863556E0,2.988834686E0,9.251667600E0
8.273844292E0,8.964558105E0,-3.671864319E0,3.289709015E0,1.023074166E1
8.283822292E0,1.000399658E1,-4.573888550E0,3.548520813E0,1.155821803E1
8.293800292E0,1.124880798E1,-5.857020264E0,3.532803497E0,1.316514595E1
8.303778292E0,1.272339157E1,-7.104825439E0,3.485651550E0,1.498375802E1
8.313756292E0,1.427341827E1,-7.957751770E0,3.568579102E0,1.672695547E1
8.323734292E0,1.573752365E1,-8.821156311E0,3.445834351E0,1.836725956E1
8.333711292E0,1.685494995E1,-9.811197510E0,3.054997101E0,1.974036326E1
8.343689292E0,1.749561768E1,-1.013317795E1,2.806364136E0,2.041209477E1
8.353667292E0,1.720836502E1,-8.558901672E0,2.929857330E0,1.944136540E1
8.363645292E0,1.630170044E1,-7.266788635E0,2.931503906E0,1.808716035E1
8.373623292E0,1.518262756E1,-6.115981750E0,2.709216156E0,1.659087896E1
8.383601292E0,1.392209885E1,-5.275928650E0,2.647095337E0,1.512175166E1
8.393579292E0,1.250290009E1,-4.366719360E0,2.650089111E0,1.350606237E1
8.403557292E0,1.101229980E1,-3.596570892E0,2.670596466E0,1.188857244E1
8.413535292E0,9.797426147E0,-3.181184692E0,2.812052307E0,1.067788056E1
8.423513292E0,8.861422577E0,-2.967279510E0,2.834206238E0,9.765361375E0
8.433491292E0,8.009095001E0,-2.734513550E0,2.675386505E0,8.875858271E0
8.443469292E0,7.243437195E0,-2.413131866E0,2.368374939E0,7.993734275E0
8.453446292E0,6.700366516E0,-2.092947693E0,2.105970612E0,7.328741619E0
8.463424292E0,6.308182068E0,-1.858535156E0,1.855840759E0,6.833114872E0
8.473402292E0,6.064937897E0,-1.782942352E0,1.497336273E0,6.496489132E0
8.483380292E0,5.947731628E0,-1.831591187E0,1.177451477E0,6.333769003E0
8.493358292E0,5.951623535E0,-1.974843292E0,9.445358276E-1,6.341449098E0
8.503336292E0,5.988446960E0,-2.107168121E0,7.265890503E-1,6.389803294E0
8.513314292E0,6.009403381E0,-2.334395599E0,4.915777588E-1,6.465599779E0
8.523292292E0,6.072272644E0,-2.595153351E0,2.261796570E-1,6.607455881E0
8.533270292E0,6.143524475E0,-2.843337250E0,7.334747314E-3,6.769602166E0
8.543248292E0,6.220015411E0,-3.062481537E0,-2.133064270E-1,6.936345184E0
8.553226292E0,6.388714600E0,-3.300785980E0,-3.809577942E-1,7.201110412E0
8.563204292E0,6.621330872E0,-3.516487427E0,-4.864883423E-1,7.512947307E0
8.573182292E0,6.797813873E0,-3.699856110E0,-4.968168640E-1,7.755387526E0
8.583159292E0,6.969357147E0,-3.851790161E0,-4.665797424E-1,7.976585933E0
8.593137292E0,7.091802521E0,-3.944746857E0,-3.724255371E-1,8.123631672E0
8.603115292E0,7.156917114E0,-3.950285339E0,-1.577719116E-1,8.176252737E0
8.613093292E0,7.211104431E0,-3.942351837E0,1.411564636E-1,8.219616188E0
8.623071292E0,7.074887695E0,-3.749552765E0,5.261558533E-1,8.024339339E0
8.633049292E0,6.828649750E0,-3.387904816E0,1.068478088E0,7.697402281E0
8.643027292E0,6.672524414E0,-3.148851929E0,1.507215729E0,7.530574333E0
8.653005292E0,6.579118652E0,-3.023562469E0,1.887574768E0,7.482624590E0
8.662983292E0,6.502028961E0,-2.915936279E0,2.298470306E0,7.487458230E0
8.672964667E0,6.473288727E0,-2.879112854E0,2.657573547E0,7.566733438E0
8.682942667E0,6.612499237E0,-3.121159515E0,3.005150757E0,7.905549567E0
8.692920667E0,6.961273956E0,-3.580254822E0,3.221001892E0,8.464774827E0
8.702898667E0,7.528444519E0,-4.241280212E0,3.334016876E0,9.261835846E0
8.712875667E0,8.270301819E0,-5.077591095E0,3.365451508E0,1.027161562E1
8.722853667E0,9.245523834E0,-6.063141632E0,3.301833801E0,1.153878260E1
8.732831667E0,1.049766998E1,-7.133715363E0,3.088826752E0,1.306261156E1
8.742809667E0,1.164638123E1,-8.096962280E0,2.781665497E0,1.445464136E1
8.752787667E0,1.282428177E1,-9.084608459E0,2.468666382E0,1.590869660E1
8.762765667E0,1.397808243E1,-9.666448517E0,2.267185364E0,1.714547009E1
8.772743667E0,1.477457611E1,-9.792636108E0,2.131567383E0,1.785293815E1
8.782721667E0,1.517170029E1,-9.491163025E0,1.927841034E0,1.799942322E1
8.792699667E0,1.516870651E1,-8.795709229E0,1.771416321E0,1.762362261E1
8.802677667E0,1.481334549E1,-7.798782349E0,1.606758728E0,1.681778476E1
8.812655667E0,1.411908920E1,-6.703060913E0,1.389111328E0,1.569105910E1
8.822633667E0,1.318682785E1,-5.665269012E0,1.168619843E0,1.439976993E1
8.832610667E0,1.217612961E1,-4.822072449E0,1.132844238E0,1.314510749E1
8.842588667E0,1.109402985E1,-4.259991302E0,1.271605682E0,1.195165282E1
8.852566667E0,1.006477020E1,-3.720962219E0,1.462309113E0,1.082975101E1
8.862544667E0,9.131760406E0,-3.325334930E0,1.614392853E0,9.851556466E0
8.872522667E0,8.274193726E0,-3.046315155E0,1.732048187E0,8.985672415E0
8.882500667E0,7.585924988E0,-2.676584015E0,1.876348114E0,8.260208360E0
8.892478667E0,6.908882904E0,-2.270478516E0,1.930834808E0,7.524351050E0
8.902456667E0,6.352489929E0,-1.949695587E0,1.859882355E0,6.900333583E0
8.912434667E0,5.993835754E0,-1.787433014E0,1.758842468E0,6.497269477E0
8.922412667E0,5.719306641E0,-1.681902466E0,1.610650635E0,6.175229536E0
8.932390667E0,5.570366364E0,-1.661095734E0,1.392254791E0,5.977172732E0
8.942368667E0,5.528154144E0,-1.759291534E0,1.209035797E0,5.925990424E0
8.952345667E0,5.567821655E0,-1.892514496E0,1.015338593E0,5.967676395E0
8.962323667E0,5.664670258E0,-2.090702362E0,7.610174561E-1,6.085940606E0
8.972301667E0,5.845194855E0,-2.411784668E0,4.857398987E-1,6.341841328E0
8.982279667E0,6.116879883E0,-2.775378571E0,2.865042114E-1,6.723171155E0
8.992257667E0,6.328090668E0,-3.068169708E0,1.675016785E-1,7.034660878E0
9.002235667E0,6.425538025E0,-3.300037537E0,5.987548828E-2,7.223667471E0
9.012213667E0,6.511309662E0,-3.508404236E0,-9.969268799E-2,7.397025918E0
9.022191667E0,6.677464142E0,-3.702550507E0,-1.490899658E-1,7.636729368E0
9.032169667E0,6.819668427E0,-3.802243195E0,-1.047821045E-1,7.808707322E0
9.042147667E0,6.845564575E0,-3.847000122E0,-2.395019531E-2,7.852498832E0
9.052125667E0,6.760242004E0,-3.752696228E0,1.637594604E-1,7.733719551E0
9.062103667E0,6.666536865E0,-3.446882172E0,6.004014587E-1,7.528890515E0
9.072081667E0,6.594536591E0,-3.157084808E0,1.099912720E0,7.393571892E0
9.082058667E0,6.569388885E0,-3.063679047E0,1.484912109E0,7.399186685E0
9.092036667E0,6.666985931E0,-3.025807800E0,1.885928192E0,7.560485394E0
9.102014667E0,6.692582703E0,-2.932102661E0,2.333198090E0,7.670182695E0
9.111992667E0,6.670129395E0,-2.821782074E0,2.697690125E0,7.728558224E0
9.121970667E0,6.617738342E0,-2.731070709E0,3.035836945E0,7.776214628E0
9.131948667E0,6.513105927E0,-2.652184753E0,3.338507538E0,7.784617226E0
9.141926667E0,6.523434448E0,-2.595901794E0,3.641477509E0,7.909125209E0
9.151904667E0,6.480024719E0,-2.484683075E0,3.861070862E0,7.941803230E0
9.161882667E0,6.420149231E0,-2.331252136E0,4.013004913E0,7.921948062E0
9.171860667E0,6.432274017E0,-2.256707153E0,4.073179779E0,7.940885953E0
9.181838667E0,6.604416046E0,-2.406246185E0,3.996389465E0,8.085756661E0
9.191816667E0,6.961723022E0,-2.784060516E0,3.704346771E0,8.362939998E0
9.201794667E0,7.430099030E0,-3.338507538E0,3.239114227E0,8.766063264E0
9.211771667E0,8.119265900E0,-4.117038574E0,2.754721527E0,9.511097521E0
9.221749667E0,9.083111572E0,-4.942122803E0,2.348616028E0,1.060393752E1
9.231727667E0,1.015772690E1,-5.680537262E0,1.993255005E0,1.180766636E1
9.241705667E0,1.123608444E1,-6.489904175E0,1.534010010E0,1.306604900E1
9.251683667E0,1.244497055E1,-7.422913971E0,1.294358368E0,1.454827507E1
9.261661667E0,1.366388580E1,-8.034242706E0,1.074914703E0,1.588729910E1
9.271639667E0,1.481768646E1,-8.434809723E0,8.286767578E-1,1.707034131E1
9.281617667E0,1.596115860E1,-8.736881561E0,7.685018921E-1,1.821214645E1
9.291595667E0,1.694626007E1,-8.987310791E0,1.020577698E0,1.920908807E1
9.301573667E0,1.785202652E1,-9.001531219E0,1.256038055E0,2.003247480E1
9.311551667E0,1.853086487E1,-8.949289856E0,1.602567444E0,2.064100201E1
9.321529667E0,1.858220810E1,-9.025481415E0,1.580712891E0,2.071850443E1
9.331506667E0,1.799183578E1,-8.931776276E0,1.901346130E0,2.017666720E1
9.341484667E0,1.697844315E1,-8.613388367E0,2.521207123E0,1.920454311E1
9.351462667E0,1.575967758E1,-8.255332947E0,3.090922394E0,1.805745721E1
9.361440667E0,1.441487411E1,-7.739804993E0,3.558100891E0,1.674375284E1
9.371418667E0,1.289942551E1,-7.018455048E0,4.382885742E0,1.532525945E1
9.381396667E0,1.134206406E1,-5.857469330E0,4.617747345E0,1.357482798E1
9.391374667E0,1.089030350E1,-4.954696655E0,3.530857544E0,1.247456148E1
9.401352667E0,1.022897873E1,-4.173620911E0,3.449875946E0,1.157379633E1
9.411330667E0,9.443711700E0,-3.069067841E0,3.401975555E0,1.049649016E1
9.421308667E0,8.269104309E0,-2.043251038E0,2.854264526E0,8.983306010E0
9.431286667E0,7.518265686E0,-1.168919220E0,2.189945984E0,7.917484100E0
9.441264667E0,7.709118805E0,-9.639953613E-1,1.281485138E0,7.874135125E0
9.451241667E0,6.617738342E0,-1.146765289E0,1.284628601E0,6.838113924E0
9.461219667E0,5.786067810E0,-2.007325745E-1,1.180145874E0,5.908605466E0
9.471197667E0,5.648354187E0,-5.882766724E-2,6.912625122E-1,5.690800434E0
9.481175667E0,5.394033051E0,-1.923500061E-1,8.773255920E-1,5.468298755E0
9.491153667E0,5.065615997E0,-3.263214111E-2,5.525010681E-1,5.095761741E0
9.501131667E0,4.664001160E0,8.681945801E-2,2.320175171E-1,4.670575614E0
9.511109667E0,4.343068542E0,1.981878662E-1,-1.957928467E-1,4.351994673E0
9.521087667E0,3.810476074E0,2.441423035E-1,-5.613327026E-1,3.859329965E0
9.531065667E0,3.356769562E0,3.611988831E-1,-8.421487427E-1,3.479594952E0
9.541043667E0,2.975961456E0,4.652325439E-1,-1.155297546E0,3.226065767E0
9.551021667E0,2.814597015E0,3.215313721E-1,-1.189276886E0,3.072412455E0
9.560999667E0,2.774031372E0,1.704954529E-1,-1.149010620E0,3.007414863E0
9.570977667E0,2.875220947E0,-1.118174744E-1,-4.987628174E-1,2.920301866E0
9.580954667E0,3.039728851E0,-1.733395386E-1,2.110610962E-1,3.051973930E0
9.590932667E0,3.322191467E0,-2.532733154E-1,9.719288635E-1,3.470698666E0
9.600910667E0,4.175716553E0,-5.447172546E-1,1.940714264E0,4.636776625E0
9.610888667E0,5.201383667E0,-9.616003418E-1,2.606080627E0,5.896670544E0
9.620866667E0,6.154601440E0,-1.120420074E0,3.762276306E0,7.299944043E0
9.630844667E0,7.447612610E0,-1.221010895E0,4.771627350E0,8.928954516E0
9.640822667E0,8.926387482E0,-1.945204926E0,5.441783752E0,1.063377760E1
9.650800667E0,1.054766602E1,-2.823278961E0,7.058421936E0,1.300174922E1
9.660778667E0,1.197390015E1,-3.200943604E0,8.738677826E0,1.516525024E1
9.670756667E0,1.341345657E1,-3.794908447E0,1.078507233E1,1.762498035E1
9.680731292E0,1.463865875E1,-4.371060333E0,1.245140717E1,1.970873002E1
9.690709292E0,1.546104858E1,-4.802612915E0,1.345072906E1,2.104830697E1
9.700686292E0,1.584006042E1,-5.288801880E0,1.431069077E1,2.199260807E1
9.710664292E0,1.601519623E1,-5.295986938E0,1.478640152E1,2.243148809E1
9.720642292E0,1.579500412E1,-5.269342346E0,1.492276794E1,2.235927385E1
9.730620292E0,1.547960999E1,-5.236560516E0,1.514565445E1,2.228072575E1
9.740598292E0,1.501452713E1,-4.928201752E0,1.500749176E1,2.179330187E1
9.750576292E0,1.444945221E1,-4.720134430E0,1.479283813E1,2.121071423E1
9.760554292E0,1.390069336E1,-4.525389404E0,1.454824677E1,2.062425536E1
9.770532292E0,1.314461563E1,-4.189038849E0,1.398586624E1,1.964518824E1
9.780510292E0,1.205054077E1,-3.692521362E0,1.340193054E1,1.839733647E1
9.790488292E0,1.072789124E1,-3.126997375E0,1.261307098E1,1.685097394E1
9.800466292E0,9.305399323E0,-2.601140900E0,1.155926239E1,1.506562105E1
9.810444292E0,7.994275818E0,-2.163301392E0,1.035232224E1,1.325740904E1
9.820421292E0,6.791976013E0,-1.859732666E0,9.030570831E0,1.145167033E1
9.830399292E0,5.598507843E0,-1.473835144E0,7.371271362E0,9.372892915E0
9.840377292E0,4.324207764E0,-9.774673462E-1,5.777385864E0,7.282334970E0
9.850355292E0,3.081192627E0,-5.207670593E-1,4.421206055E0,5.414056641E0
9.860333292E0,2.147135010E0,-1.621128845E-1,3.181035004E0,3.841282733E0
9.870311292E0,1.327289886E0,1.993853760E-1,2.242337036E0,2.613336632E0
9.880289292E0,6.008505249E-1,5.375321960E-1,1.507814484E0,1.709814824E0
9.890267292E0,1.356179810E-1,7.797285461E-1,8.644523621E-1,1.172026761E0
9.900245292E0,-7.948471069E-2,8.213420105E-1,4.855902100E-1,9.574541083E-1
9.910223292E0,-1.824705505E-1,8.931925964E-1,2.097138977E-1,9.354509260E-1
9.920201292E0,-2.758763123E-1,1.045725403E0,3.053649902E-2,1.081934303E0
9.930179292E0,-4.137396240E-1,1.179247742E0,-2.676434326E-1,1.278060531E0
9.940157292E0,-4.578977966E-1,1.235081635E0,-5.536985779E-1,1.428873385E0
9.950134292E0,-4.724176025E-1,1.329535217E0,-8.292755127E-1,1.636624624E0
9.960112292E0,-4.171824646E-1,1.437161407E0,-1.074465637E0,1.842267767E0
9.970090292E0,-2.766247559E-1,1.489103394E0,-1.411414948E0,2.070275906E0
9.980068292E0,-1.919009399E-1,1.523831177E0,-1.735191650E0,2.317278035E0
9.990046292E0,-1.276844788E-1,1.560504913E0,-1.865271149E0,2.435306011E0
1.000002429E1,2.050735474E-2,1.489402771E0,-1.830543365E0,2.360006394E0
1.001000229E1,1.580712891E-1,1.428030396E0,-1.710792389E0,2.234069816E0
1.001998029E1,3.116519165E-1,1.355880432E0,-1.746268616E0,2.232709731E0
1.002995829E1,4.906796265E-1,1.168320465E0,-1.423689423E0,1.905946163E0
1.003993629E1,6.376739502E-1,1.056802368E0,-8.385562134E-1,1.492191621E0
1.004991429E1,8.135581970E-1,1.066232758E0,8.397537231E-2,1.343793547E0
1.005989229E1,1.353635101E0,7.770341492E-1,1.288370819E0,2.023860031E0
1.006986929E1,2.269879761E0,4.980143738E-1,2.710413666E0,3.570254148E0
1.007984729E1,3.598217468E0,1.347198486E-2,4.198020172E0,5.529079834E0
1.008982529E1,5.128036194E0,-5.264552307E-1,6.029611359E0,7.932850903E0
1.009980329E1,7.091802521E0,-1.048270111E0,8.584498444E0,1.118419182E1
1.010978129E1,9.849817200E0,-1.917063446E0,1.178903458E1,1.548145237E1
1.011975929E1,1.324820023E1,-2.944526825E0,1.555819656E1,2.064564186E1
1.012973729E1,1.686078781E1,-3.797752533E0,1.892245056E1,2.562748964E1
1.013971529E1,2.001772293E1,-4.665647736E0,2.085837479E1,2.928394268E1
1.014969329E1,2.295865723E1,-6.456673279E0,2.255913803E1,3.282839137E1
1.015967129E1,2.474504242E1,-6.606362000E0,2.311313599E1,3.449895938E1
1.016964929E1,2.421259964E1,-4.716242523E0,2.222563156E1,3.320348812E1
1.017962729E1,2.258353729E1,-3.934418335E0,2.134112091E1,3.131994965E1
1.018960429E1,2.067964645E1,-3.903881836E0,2.124966110E1,2.990712570E1
1.019958229E1,1.839779160E1,-4.192332001E0,2.200154755E1,2.898486636E1
1.020956029E1,1.590846817E1,-4.254303131E0,2.235780670E1,2.776778664E1
1.021953829E1,1.352916595E1,-3.952979736E0,2.193164291E1,2.607031532E1
1.022951629E1,1.138906631E1,-3.524420929E0,2.058728851E1,2.379009926E1
1.023949429E1,9.494156799E0,-2.915187836E0,1.842024490E1,2.092708187E1
1.024947229E1,7.734416199E0,-2.048190765E0,1.586969879E1,1.777255241E1
1.025945029E1,6.165977783E0,-1.259480896E0,1.304597076E1,1.448457550E1
1.026942829E1,4.819677429E0,-5.545967102E-1,1.017464172E1,1.127209840E1
1.027940629E1,3.686084747E0,1.438508606E-1,7.448211365E0,8.311664476E0
1.028938429E1,2.650837555E0,8.038284302E-1,5.025948486E0,5.738748825E0
1.029936129E1,1.843117218E0,1.369651794E0,2.980302429E0,3.762343643E0
1.030933929E1,1.254092102E0,1.752106476E0,1.396146698E0,2.567459777E0
1.031931729E1,7.087760925E-1,2.121687927E0,7.978408813E-2,2.238367421E0
1.032929529E1,2.947370911E-1,2.465223541E0,-8.358618164E-1,2.619706479E0
1.033927329E1,-4.790039063E-2,2.698737946E0,-1.501677246E0,3.088772490E0
1.034925129E1,-2.348616028E-1,2.851869507E0,-1.883982239E0,3.426033965E0
1.035922929E1,-2.682421875E-1,2.852168884E0,-2.016307068E0,3.503186465E0
1.036920729E1,-2.845582581E-1,2.980601807E0,-2.094444580E0,3.653992150E0
1.037918529E1,-3.603007507E-1,3.023712158E0,-2.010319519E0,3.648840421E0
1.038916329E1,-3.198847961E-1,2.892884216E0,-1.961970062E0,3.510047278E0
1.039914129E1,-3.162922668E-1,2.801873474E0,-1.989363098E0,3.450811687E0
1.040911929E1,-3.387455750E-1,2.696342926E0,-1.920356598E0,3.327579180E0
1.041909729E1,-3.811074829E-1,2.634521484E0,-1.838327179E0,3.235025994E0
1.042907429E1,-3.505709839E-1,2.568957825E0,-1.738335114E0,3.121578653E0
1.043905229E1,-2.392025757E-1,2.421514435E0,-1.470841370E0,2.843294632E0
1.044903029E1,-1.875599670E-1,2.636168060E0,-1.273551636E0,2.933682763E0
1.045900829E1,-5.224136353E-2,2.648891602E0,-1.164428558E0,2.894002375E0
1.046898629E1,2.037263489E-1,2.605332184E0,-9.102571106E-1,2.767278125E0
1.047896429E1,5.560935974E-1,2.620899811E0,-7.694000244E-2,2.680349916E0
1.048894229E1,8.946894836E-1,2.667303314E0,8.186476135E-1,2.930044395E0
1.049892029E1,1.282083893E0,2.801424408E0,2.395318909E0,3.902469794E0
1.050889829E1,1.675465851E0,3.115920410E0,4.101021881E0,5.416135734E0
1.051887629E1,2.250120850E0,3.125799866E0,5.899082794E0,7.045058300E0
1.052885429E1,3.066523132E0,2.740650787E0,8.223598938E0,9.194689247E0
1.053883229E1,3.828289032E0,2.507435760E0,1.049916687E1,1.145318890E1
1.054880929E1,4.766687622E0,2.003882904E0,1.296049850E1,1.395390193E1
1.055878729E1,6.213129730E0,1.218316498E0,1.604483459E1,1.724888383E1
1.056876529E1,7.890541534E0,3.722758484E-1,1.958796661E1,2.112078765E1
1.057874329E1,9.664652252E0,-5.037025452E-1,2.255868896E1,2.454696860E1
1.058872129E1,1.136197266E1,-1.072070618E0,2.470657242E1,2.721504141E1
1.059869929E1,1.280467255E1,-1.185384979E0,2.583537506E1,2.885881808E1
1.060867729E1,1.383468063E1,-1.029559021E0,2.605466904E1,2.951786169E1
1.061865529E1,1.423375076E1,-6.947053528E-1,2.532538559E1,2.905954975E1
1.062863329E1,1.396655640E1,-2.634521484E-1,2.409269897E1,2.784945688E1
1.063861129E1,1.317305649E1,-1.848655701E-1,2.311448318E1,2.660531762E1
1.064858929E1,1.193363388E1,-3.447331238E-1,2.262515076E1,2.558178855E1
1.065856729E1,1.051817734E1,-5.337899780E-1,2.257964539E1,2.491500295E1
1.066854429E1,9.038803711E0,-5.821394348E-1,2.214180588E1,2.392275959E1
1.067852192E1,7.746091919E0,-4.953199768E-1,2.104847946E1,2.243403150E1
1.068849992E1,6.773115234E0,-3.176394653E-1,1.924637695E1,2.040585726E1
1.069847792E1,6.010151825E0,-4.655319214E-2,1.692889618E1,1.796417596E1
1.070845592E1,5.255121918E0,3.397933960E-1,1.420650742E1,1.515112599E1
1.071843392E1,4.519401855E0,6.703060913E-1,1.139400604E1,1.227589822E1
1.072841192E1,3.722309418E0,1.010997620E0,8.725954285E0,9.540439286E0
1.073838992E1,2.821482697E0,1.347048798E0,6.225553894E0,6.966550535E0
1.074836792E1,2.011217651E0,1.716630249E0,4.189637604E0,4.954278868E0
1.075834592E1,1.460213470E0,2.030677185E0,2.600242767E0,3.607926781E0
1.076832392E1,1.127754822E0,2.245630188E0,1.355431366E0,2.855149745E0
1.077830192E1,8.674461365E-1,2.378104706E0,2.685415649E-1,2.545576431E0
1.078827992E1,7.655081177E-1,2.487826538E0,-6.727011108E-1,2.688458731E0
1.079825692E1,7.330256653E-1,2.522853699E0,-1.525178375E0,3.037809488E0
1.080823492E1,7.165599060E-1,2.397564240E0,-2.284848633E0,3.388555099E0
1.081821292E1,7.637118530E-1,2.214644623E0,-3.037034454E0,3.835555354E0
1.082819092E1,6.926097107E-1,2.039658508E0,-3.584745483E0,4.182142420E0
1.083816892E1,4.733157349E-1,1.920655975E0,-3.880829773E0,4.355891055E0
1.084814692E1,2.805166626E-1,1.864223328E0,-3.991749115E0,4.414530463E0
1.085812492E1,9.190887451E-2,1.883383484E0,-4.024830322E0,4.444641685E0
1.086810292E1,2.709365845E-2,1.989812164E0,-3.699107666E0,4.200414746E0
1.087808092E1,5.239105225E-3,2.132016449E0,-3.121159515E0,3.779835751E0
1.088805892E1,-8.337661743E-2,2.335144043E0,-2.647095337E0,3.530858689E0
1.089803692E1,4.460723877E-2,2.417173462E0,-2.128274231E0,3.220911137E0
1.090801492E1,3.194357300E-1,2.377655640E0,-1.628313904E0,2.899429547E0
1.091799192E1,4.724176025E-1,2.423460388E0,-8.710386658E-1,2.618214468E0
1.092796992E1,5.616320801E-1,2.545756073E0,3.076103210E-1,2.625057844E0
1.093794792E1,6.691085815E-1,2.669398956E0,1.581161957E0,3.173873062E0
1.094792592E1,9.354048157E-1,2.599793701E0,3.260519714E0,4.273745227E0
1.095790392E1,1.388662262E0,2.312541046E0,5.217400360E0,5.873456860E0
1.096788192E1,1.761237488E0,2.109712830E0,7.174281006E0,7.682652775E0
1.097785992E1,1.948947144E0,1.989512787E0,9.252708893E0,9.662772788E0
1.098783792E1,1.933978271E0,2.180365906E0,1.090048233E1,1.128338524E1
1.099781592E1,2.085612946E0,2.535128174E0,1.286095551E1,1.327331280E1
1.100779392E1,2.546953583E0,2.387235718E0,1.545356415E1,1.584293255E1
1.101777192E1,3.606600037E0,2.173031158E0,1.847652786E1,1.895024301E1
1.102774992E1,5.114414520E0,1.791025543E0,2.153975784E1,2.221094722E1
1.103772692E1,6.852899323E0,1.534459076E0,2.367970779E1,2.469909624E1
1.104770492E1,8.416098633E0,1.561103668E0,2.467902969E1,2.612129912E1
1.105768292E1,9.522897034E0,2.155966644E0,2.483201157E1,2.668262653E1
1.106766092E1,1.053374496E1,3.059936829E0,2.397624115E1,2.636632580E1
1.107763892E1,1.125255020E1,3.866609344E0,2.264520905E1,2.558077494E1
1.108761692E1,1.127979355E1,4.412823486E0,2.123618912E1,2.444754552E1
1.109759492E1,1.052940399E1,4.765041046E0,2.055465637E1,2.358109122E1
1.110757292E1,9.328002319E0,4.727768555E0,2.045152084E1,2.297015733E1
1.111755092E1,8.111332397E0,3.978426819E0,2.050211563E1,2.240442676E1
1.112752892E1,7.132966919E0,3.020419006E0,2.026770309E1,2.169750992E1
1.113750692E1,6.269113312E0,2.618355103E0,1.926927933E1,2.043190375E1
1.114748492E1,5.567372589E0,2.556383972E0,1.752271133E1,1.856276243E1
1.115746192E1,5.166356506E0,2.646646271E0,1.504087234E1,1.612215299E1
1.116743992E1,4.914580078E0,2.765499115E0,1.238389755E1,1.360742449E1
1.117741792E1,4.465962982E0,2.680475922E0,9.818532257E0,1.111455587E1
1.118739592E1,3.701951752E0,2.804118805E0,7.434440002E0,8.765753088E0
1.119737392E1,2.824626160E0,2.878963165E0,5.517376556E0,6.834353365E0
1.120735192E1,2.023192749E0,2.798730011E0,3.869603119E0,5.186523583E0
1.121732992E1,1.182391205E0,2.699636078E0,2.617456970E0,3.941721059E0
1.122730792E1,3.923341370E-1,2.685565338E0,1.569635925E0,3.135274182E0
1.123728592E1,-2.037263489E-1,2.653082886E0,7.032376099E-1,2.752252961E0
1.124726392E1,-7.002438354E-1,2.536625061E0,1.496887207E-4,2.631503021E0
1.125724192E1,-1.031804352E0,2.463427277E0,-5.595364380E-1,2.728768072E0
1.126721992E1,-1.141825562E0,2.362686768E0,-9.274713135E-1,2.783209912E0
1.127719692E1,-1.070424042E0,2.236798553E0,-1.157842255E0,2.736726893E0
1.128717492E1,-9.963281250E-1,2.134710846E0,-1.457519073E0,2.770202516E0
1.129715292E1,-9.369017029E-1,2.094294891E0,-1.545386353E0,2.766238397E0
1.130713092E1,-8.366102600E-1,2.126477966E0,-1.667831726E0,2.829043643E0
1.131710892E1,-6.890171814E-1,2.096540222E0,-1.617536316E0,2.736174211E0
1.132708692E1,-5.343887329E-1,2.135608978E0,-1.521286469E0,2.675950214E0
1.133706492E1,-3.680845642E-1,2.229463806E0,-1.436263275E0,2.677470318E0
1.134704292E1,-1.981878662E-1,2.208956451E0,-1.095122681E0,2.473471391E0
1.135702092E1,7.185058594E-3,2.367776184E0,-6.280938721E-1,2.449677039E0
1.136699892E1,1.263372803E-1,2.754571838E0,-4.266128540E-2,2.757797510E0
1.137697692E1,2.790197754E-1,3.001408539E0,7.487429810E-1,3.105949340E0
1.138695492E1,5.075944519E-1,3.123105469E0,1.453776855E0,3.482083721E0
1.139693192E1,7.198530579E-1,3.227887573E0,2.412084045E0,4.093359995E0
1.140690992E1,1.042581940E0,3.106939087E0,3.690276031E0,4.935401177E0
1.141688792E1,1.434616699E0,2.881956940E0,5.018314362E0,5.962153965E0
1.142686592E1,1.826501770E0,2.661465454E0,6.799759827E0,7.527033996E0
1.143684392E1,2.003134460E0,2.586471405E0,8.701704712E0,9.296345889E0
1.144682192E1,2.039808197E0,3.077300720E0,1.047551605E1,1.110707134E1
1.145679992E1,1.995200958E0,3.606450348E0,1.258328293E1,1.324108456E1
1.146677792E1,1.925146637E0,4.030668182E0,1.444077026E1,1.511583016E1
1.147675592E1,2.486778717E0,4.435875549E0,1.677321991E1,1.752717794E1
1.148673392E1,3.452270966E0,4.448449402E0,1.884985153E1,1.967291996E1
1.149671192E1,4.161645813E0,4.551135864E0,2.012475037E1,2.104846101E1
1.150668992E1,4.700525208E0,4.876259766E0,2.135653885E1,2.240478962E1
1.151666692E1,5.283413086E0,5.377716980E0,2.238055939E1,2.361617522E1
1.152664492E1,6.134543152E0,5.549409943E0,2.340023895E1,2.481934232E1
1.153662292E1,6.956483917E0,5.408253479E0,2.411410446E1,2.567356438E1
1.154660092E1,7.367529144E0,5.191354523E0,2.411679886E1,2.574588578E1
1.155657892E1,7.072193298E0,5.328469391E0,2.358690079E1,2.519425317E1
1.156655692E1,6.374045105E0,5.331014099E0,2.261108002E1,2.408960568E1
1.157653492E1,5.870791626E0,5.034480743E0,2.147284698E1,2.282313187E1
1.158651292E1,5.541626129E0,4.633165283E0,1.987027954E1,2.114246555E1
1.159649092E1,5.228177948E0,4.410428467E0,1.781041306E1,1.907869328E1
1.160646892E1,5.114414520E0,4.332440643E0,1.572914108E1,1.709775298E1
1.161644692E1,4.770280151E0,4.336332550E0,1.316153046E1,1.465555310E1
1.162642492E1,4.519551544E0,4.525688782E0,1.117096985E1,1.287240352E1
1.163640192E1,4.115391998E0,4.336931305E0,9.165590057E0,1.094319266E1
1.164637992E1,3.408711548E0,4.409829712E0,7.252119141E0,9.146537297E0
1.165635792E1,2.667003937E0,4.425097961E0,5.856720886E0,7.809966806E0
1.166633592E1,2.065554657E0,4.265230408E0,4.758155365E0,6.715560211E0
1.167631354E1,1.491348724E0,4.175866241E0,3.863465881E0,5.881185977E0
1.168629154E1,9.723779297E-1,4.123924255E0,3.093018036E0,5.245858430E0
1.169626954E1,6.328839111E-1,4.056115265E0,2.464475098E0,4.788136443E0
1.170624754E1,4.074526978E-1,3.885470123E0,1.836530914E0,4.316913432E0
1.171622554E1,2.115101624E-1,3.762875061E0,1.285676422E0,3.982075983E0
1.172620354E1,2.140548706E-2,3.671564941E0,8.554710388E-1,3.769970559E0
1.173618154E1,-1.173559570E-1,3.492537231E0,4.978646851E-1,3.529795742E0
1.174615854E1,-1.905537415E-1,3.333418121E0,3.047662354E-1,3.352740604E0
1.175613654E1,-2.850073242E-1,3.175346832E0,3.860472107E-1,3.211399871E0
1.176611454E1,-3.376977539E-1,3.009791107E0,4.861889648E-1,3.067452036E0
1.177609254E1,-4.179309082E-1,2.982547760E0,6.125262451E-1,3.073344398E0
1.178607054E1,-4.537065125E-1,2.921474762E0,8.403524780E-1,3.073606460E0
1.179604854E1,-3.902384949E-1,2.792742462E0,9.213340759E-1,2.966572605E0
1.180602654E1,-4.330494690E-1,2.763702850E0,1.083147583E0,2.999798989E0
1.181600454E1,-4.334985352E-1,2.841840363E0,1.445843353E0,3.217831666E0
1.182598254E1,-2.833607483E-1,2.890189819E0,1.776206360E0,3.404173841E0
1.183596054E1,-9.265731812E-2,2.900817719E0,2.194586334E0,3.638617594E0
1.184593854E1,1.651066589E-1,2.815794525E0,2.866988068E0,4.021887566E0
1.185591654E1,5.556445312E-1,2.625240784E0,3.769760742E0,4.627280635E0
1.186589454E1,9.560618591E-1,2.674039307E0,4.652924194E0,5.451077329E0
1.187587154E1,1.314716034E0,2.742596741E0,5.645360413E0,6.412519733E0
1.188584954E1,1.876348114E0,2.298320618E0,6.781048737E0,7.401728303E0
1.189582754E1,2.489922180E0,2.102677460E0,8.144563293E0,8.772392844E0
1.190580554E1,2.914439392E0,2.177521820E0,9.525142365E0,1.019626870E1
1.191578354E1,3.169059906E0,2.390977936E0,1.106049957E1,1.175135596E1
1.192576154E1,3.218157806E0,2.737207947E0,1.188782913E1,1.261623274E1
1.193573954E1,3.079845428E0,3.692820740E0,1.226998444E1,1.317857697E1
1.194571754E1,2.524799652E0,5.485043793E0,1.302471497E1,1.435630588E1
1.195569554E1,2.212698669E0,6.963519287E0,1.472757385E1,1.644044001E1
1.196567354E1,1.851948853E0,7.698041840E0,1.595112946E1,1.780809068E1
1.197565154E1,1.744622040E0,8.742270355E0,1.801398972E1,2.009912492E1
1.198562854E1,2.453697510E0,8.403674469E0,2.011621811E1,2.193865554E1
1.199560654E1,3.035986633E0,7.187004547E0,2.128498764E1,2.266982461E1
1.200558454E1,3.004102936E0,6.441854095E0,2.194286957E1,2.306537759E1
1.201556254E1,2.323168945E0,5.974376221E0,2.182775894E1,2.274953506E1
1.202554054E1,1.235231323E0,6.139782257E0,2.139830200E1,2.229596491E1
1.203551854E1,1.672023010E-1,6.773564301E0,2.072021210E1,2.179991558E1
1.204549654E1,-3.062631226E-1,6.861730957E0,1.953063583E1,2.070320953E1
1.205547454E1,-3.306623840E-1,6.475983124E0,1.768587204E1,1.883713792E1
1.206545254E1,-4.999603271E-1,6.541846161E0,1.518307663E1,1.653999781E1
1.207543054E1,-2.484832764E-2,6.291416931E0,1.350626358E1,1.489972149E1
1.208540854E1,5.287005615E-1,5.888155518E0,1.140149048E1,1.284304811E1
1.209538654E1,9.288185120E-1,5.958060150E0,9.441915436E0,1.120316704E1
1.210536354E1,1.216969299E0,5.662424927E0,7.688910828E0,9.626184085E0
1.211534154E1,1.444196777E0,5.332061920E0,6.261628876E0,8.350124839E0
1.212531954E1,1.594184875E0,5.131329346E0,5.153782654E0,7.445363787E0
1.213529754E1,1.576371918E0,4.968917084E0,4.338128815E0,6.781920600E0
1.214527554E1,1.424138489E0,4.837340698E0,3.640279999E0,6.219298508E0
1.215525354E1,1.171463928E0,4.686604156E0,3.020568695E0,5.697404804E0
1.216523154E1,9.238787842E-1,4.504882050E0,2.426454163E0,5.199537873E0
1.217520954E1,7.026388550E-1,4.341122589E0,1.926344147E0,4.801025772E0
1.218518754E1,5.056484985E-1,4.222868500E0,1.526675262E0,4.518742760E0
1.219516554E1,3.908372498E-1,4.080215149E0,1.246457977E0,4.284223022E0
1.220514354E1,4.125421143E-1,3.873345337E0,1.151705017E0,4.061947752E0
1.221512154E1,4.258644104E-1,3.673810272E0,1.074914703E0,3.851452198E0
1.222509854E1,3.888912964E-1,3.525917816E0,1.022823029E0,3.691815249E0
1.223507654E1,3.436853027E-1,3.262914734E0,1.173559570E0,3.484533572E0
1.224505454E1,2.683918762E-1,2.928510132E0,1.374292145E0,3.246056791E0
1.225503254E1,2.790197754E-1,2.590063934E0,1.662442932E0,3.090307383E0
1.226501054E1,2.981799316E-1,2.264640656E0,1.958227844E0,3.008681582E0
1.227498854E1,3.564088440E-1,2.025587769E0,2.222129059E0,3.027852478E0
1.228496654E1,4.816983032E-1,1.868115234E0,2.483335876E0,3.144653377E0
1.229494454E1,7.271878052E-1,1.754351807E0,2.749781799E0,3.341833675E0
1.230492254E1,1.134640503E0,1.682950287E0,3.209176483E0,3.797175850E0
1.231490054E1,1.571731567E0,1.782044220E0,3.846251678E0,4.521025735E0
1.232487854E1,1.915716248E0,1.887724457E0,4.526437225E0,5.265178660E0
1.233485654E1,2.247576141E0,1.781894531E0,5.175936584E0,5.917521961E0
1.234483354E1,2.459834747E0,1.639989624E0,5.751340027E0,6.466704343E0
1.235481154E1,2.454745331E0,1.661095734E0,6.164929962E0,6.840422144E0
1.236478954E1,2.097288666E0,2.460433502E0,6.775360565E0,7.507187460E0
1.237476754E1,1.631906433E0,3.203787689E0,7.523654480E0,8.338630037E0
1.238474554E1,1.414259033E0,3.621718597E0,8.102650452E0,8.987208607E0
1.239472354E1,9.833052063E-1,4.283791809E0,8.751101990E0,9.792831431E0
1.240470154E1,3.799099731E-1,5.389841766E0,9.834848328E0,1.122136210E1
1.241467954E1,-4.752616882E-1,6.750212860E0,1.105825424E1,1.296442186E1
1.242465754E1,-1.003363495E0,7.302115173E0,1.219723572E1,1.425132217E1
1.243463554E1,-1.051862640E0,7.538473663E0,1.277368698E1,1.486950165E1
1.244461354E1,-7.702981567E-1,7.333250427E0,1.331765579E1,1.522267640E1
1.245459054E1,-5.522016907E-1,6.990313568E0,1.362825989E1,1.532641113E1
1.246456854E1,-4.736151123E-1,7.118447113E0,1.360056747E1,1.535812606E1
1.247454654E1,-2.676434326E-1,7.393275604E0,1.359487930E1,1.547749658E1
1.248452454E1,1.142124939E-1,7.436385956E0,1.371373215E1,1.560061954E1
1.249450254E1,5.953120422E-1,7.132517853E0,1.345746506E1,1.524239394E1
1.250448054E1,1.288819885E0,6.737189941E0,1.266980301E1,1.440745270E1
1.251445854E1,2.059866486E0,6.310577087E0,1.150402725E1,1.328190785E1
1.252443654E1,2.790497131E0,5.995182953E0,1.052027298E1,1.242599036E1
1.253441454E1,3.396437073E0,5.696853333E0,1.005054977E1,1.204173880E1
1.254439254E1,3.865561523E0,5.218747559E0,9.601483612E0,1.159165129E1
1.255437054E1,4.124523010E0,4.583318939E0,9.462722168E0,1.129431775E1
1.256434854E1,4.074826355E0,3.940106506E0,9.692644043E0,1.122835685E1
1.257432554E1,3.680695953E0,3.171155548E0,9.927355957E0,1.105242718E1
1.258430354E1,2.913241882E0,2.727328491E0,9.826166382E0,1.060560440E1
1.259428154E1,2.188000031E0,2.616109772E0,9.332043915E0,9.935714272E0
1.260425954E1,1.643133087E0,2.589465179E0,8.387059021E0,8.930172186E0
1.261423754E1,1.219214630E0,2.685265961E0,7.117848358E0,7.704602705E0
1.262421554E1,9.104067993E-1,3.002456360E0,5.843398590E0,6.632412217E0
1.263419354E1,7.854167175E-1,3.311713257E0,4.908742218E0,5.973280027E0
1.264417154E1,5.604345703E-1,3.653302917E0,3.971241760E0,5.425077901E0
1.265414954E1,3.058140564E-1,3.971391449E0,3.221301270E0,5.122719409E0
1.266412754E1,1.686991882E-1,4.196672974E0,2.764151917E0,5.028027375E0
1.267410554E1,8.981323242E-2,4.469555511E0,2.336491241E0,5.044222855E0
1.268408229E1,6.391708374E-2,4.440216522E0,1.968855743E0,4.857571522E0
1.269406029E1,2.344125366E-1,4.056264954E0,1.945953369E0,4.504993799E0
1.270403829E1,3.297642517E-1,3.921545105E0,1.988165588E0,4.409088668E0
1.271401629E1,3.519181824E-1,3.730991364E0,2.129471741E0,4.310312385E0
1.272399429E1,3.830534363E-1,3.368594971E0,2.160157928E0,4.020005508E0
1.273397229E1,2.496807861E-1,3.276237030E0,1.985620880E0,3.839109252E0
1.274395029E1,4.415817261E-2,3.181484070E0,1.736688538E0,3.624896951E0
1.275392829E1,-8.412506104E-2,3.056943054E0,1.419348450E0,3.371428167E0
1.276390629E1,-1.697470093E-1,3.097957764E0,1.284628601E0,3.358039159E0
1.277388429E1,-1.609153748E-1,3.208278351E0,1.553619232E0,3.568287608E0
1.278386229E1,-2.098635864E-1,3.364403687E0,2.012415161E0,3.925948251E0
1.279384029E1,-6.017486572E-2,3.371888123E0,2.905757446E0,4.451592621E0
1.280381729E1,4.773573303E-1,3.182831268E0,4.281396790E0,5.356178056E0
1.281379529E1,1.225052490E0,3.130739594E0,5.869743805E0,6.764331182E0
1.282377329E1,2.036664734E0,2.907553711E0,7.709567871E0,8.487597338E0
1.283375129E1,3.391497345E0,2.705324249E0,9.936037903E0,1.084185790E1
1.284372929E1,5.106481018E0,1.935325470E0,1.241398499E1,1.356202995E1
1.285370729E1,6.958729248E0,1.586700439E-2,1.483295471E1,1.638416034E1
1.286368529E1,8.694819031E0,-1.865271149E0,1.666200119E1,1.888654013E1
1.287366329E1,9.357191620E0,-1.919159088E0,1.891840897E1,2.119307444E1
1.288364129E1,1.033076706E1,-7.830216980E-1,2.076466965E1,2.320580480E1
1.289361929E1,1.277518387E1,-1.118324432E0,2.168211182E1,2.519067179E1
1.290359729E1,1.587643478E1,-2.831960907E0,2.171803711E1,2.705095784E1
1.291357429E1,1.819885529E1,-5.060526581E0,2.227293320E1,2.920429448E1
1.292355229E1,1.900852158E1,-5.508544922E0,2.168121368E1,2.935545923E1
1.293353029E1,1.823118805E1,-5.150040436E0,2.055390793E1,2.795285791E1
1.294350829E1,1.645528107E1,-4.924160156E0,1.754755966E1,2.455484633E1
1.295348629E1,1.530881516E1,-3.538791046E0,1.535117706E1,2.196682728E1
1.296346429E1,1.413360901E1,-2.472408600E0,1.325448715E1,1.953338520E1
1.297344229E1,1.296753387E1,-1.808090057E0,1.066187851E1,1.688495715E1
1.298342029E1,1.175909683E1,-8.631051636E-1,9.018895111E0,1.484458749E1
1.299339829E1,1.055245605E1,5.897735596E-2,8.185877380E0,1.335538826E1
1.300337629E1,9.357790375E0,6.180647278E-1,7.620203705E0,1.208378042E1
1.301335429E1,8.193212128E0,1.078656921E0,7.222480774E0,1.097526557E1
1.302333229E1,7.311395874E0,1.419049072E0,6.591842194E0,9.945983782E0
1.303330929E1,6.398893433E0,1.562450867E0,5.655090179E0,8.681424699E0
1.304328729E1,5.025798798E0,2.368225250E0,5.080285492E0,7.528375992E0
1.305326529E1,4.322860565E0,2.744093628E0,4.341721344E0,6.713249402E0
1.306324329E1,3.419040070E0,3.078198853E0,3.528911591E0,5.798134199E0
1.307322129E1,2.877316589E0,3.351680145E0,2.391127625E0,5.022967437E0
1.308319929E1,2.452949066E0,3.520678711E0,1.613045654E0,4.584108854E0
1.309317729E1,2.117197266E0,3.354524231E0,1.402583313E0,4.207445428E0
1.310315529E1,1.838626556E0,3.841910706E0,1.015637970E0,4.378623753E0
1.311313329E1,1.713486786E0,4.043691101E0,9.093589783E-1,4.484908966E0
1.312311129E1,1.610650635E0,3.922443237E0,6.586303711E-1,4.291101302E0
1.313308929E1,1.580563202E0,3.910767517E0,5.632786560E-1,4.255533510E0
1.314306629E1,1.512604523E0,3.868704987E0,6.117778015E-1,4.198704895E0
1.315304429E1,1.274150391E0,4.023932190E0,7.286846924E-1,4.283278052E0
1.316302229E1,1.091979218E0,4.163741455E0,8.514294434E-1,4.387948679E0
1.317300029E1,9.237290955E-1,4.182751923E0,9.141490173E-1,4.379995150E0
1.318297829E1,9.177415466E-1,4.292773132E0,1.072070618E0,4.518792551E0
1.319295629E1,1.060245209E0,4.324956207E0,1.168470154E0,4.603768956E0
1.320293429E1,1.213227081E0,4.396956482E0,1.006057892E0,4.670899136E0
1.321291229E1,1.482217712E0,4.511618042E0,1.151255951E0,4.886415554E0
1.322289029E1,1.953886871E0,4.380790100E0,9.827064514E-1,4.896397428E0
1.323286829E1,2.391277313E0,4.017196198E0,9.813592529E-1,4.776938189E0
1.324284629E1,2.682870941E0,3.728446655E0,1.234782257E0,4.756448062E0
1.325282329E1,3.117117920E0,3.148253174E0,1.608554993E0,4.713318506E0
1.326280129E1,3.671864319E0,2.133663025E0,2.127376099E0,4.749824686E0
1.327277929E1,4.544549561E0,7.131170654E-1,2.728675690E0,5.348564076E0
1.328275729E1,6.999594269E0,-2.171085205E0,3.791914673E0,8.251457313E0
1.329273529E1,1.084644470E1,-6.696025543E0,5.498964844E0,1.388238939E1
1.330271329E1,1.511407013E1,-1.184232376E1,7.412585449E0,2.058208374E1
1.331269129E1,1.963706451E1,-1.661649582E1,9.651779022E0,2.747506277E1
1.332266929E1,2.342448853E1,-2.057815750E1,1.200383789E1,3.341046771E1
1.333264729E1,2.614897293E1,-2.283187088E1,1.460078751E1,3.765960846E1
1.334262529E1,2.894485886E1,-2.418640411E1,1.661425049E1,4.121674802E1
1.335260329E1,2.965842499E1,-2.421050400E1,1.733066071E1,4.202525999E1
1.336258129E1,2.743015869E1,-2.203762253E1,1.596564926E1,3.863900062E1
1.337255829E1,2.532239182E1,-2.003104523E1,1.508218643E1,3.563619856E1
1.338253629E1,2.378957932E1,-1.912947006E1,1.446891174E1,3.378209756E1
1.339251429E1,2.183449493E1,-1.786594757E1,1.297711395E1,3.105386833E1
1.340249229E1,1.914234329E1,-1.502380783E1,1.126257935E1,2.681398519E1
1.341247029E1,1.651410873E1,-1.200892731E1,9.356443176E0,2.246047976E1
1.342244829E1,1.410172531E1,-9.547146606E0,7.078929291E0,1.844228579E1
1.343242629E1,1.190264832E1,-7.436385956E0,4.815186768E0,1.483775241E1
1.344240429E1,1.019799316E1,-5.637875977E0,2.770588531E0,1.197751522E1
1.345238229E1,8.978778534E0,-4.077820129E0,1.206491089E0,9.934923337E0
1.346236029E1,7.971972198E0,-2.716550903E0,-1.257385254E-2,8.422122514E0
1.347233829E1,6.999743958E0,-1.628762970E0,-1.311722260E0,7.305470523E0
1.348231529E1,6.104156342E0,-5.848338318E-1,-2.439028015E0,6.599364584E0
1.349229329E1,5.031037903E0,2.730322266E-1,-3.616629181E0,6.202088004E0
1.350227129E1,4.072880402E0,9.069639587E-1,-4.735851746E0,6.311832550E0
1.351224929E1,2.978506165E0,1.475032654E0,-5.676645355E0,6.578109363E0
1.352222729E1,1.527723083E0,2.159259796E0,-6.652915192E0,7.159442802E0
1.353220529E1,4.349954224E-1,2.489473114E0,-6.983128510E0,7.426357195E0
1.354218329E1,-3.344046021E-1,2.586172028E0,-6.549330597E0,7.049386034E0
1.355216129E1,-1.310075684E0,2.738255768E0,-6.065836029E0,6.782972039E0
1.356213929E1,-2.011816406E0,2.642604675E0,-5.421725464E0,6.358134296E0
1.357211729E1,-2.551743622E0,2.571053467E0,-4.294120331E0,5.617933860E0
1.358209529E1,-2.963088226E0,2.811752930E0,-3.211122437E0,5.195878528E0
1.359207229E1,-3.092718658E0,3.040177917E0,-2.217788086E0,4.870952111E0
1.360205029E1,-2.921624451E0,3.171903992E0,-1.526226196E0,4.574519731E0
1.361202829E1,-2.666704559E0,3.288361816E0,-1.233135681E0,4.409678021E0
1.362200629E1,-2.488425293E0,3.653452606E0,-8.930429077E-1,4.509711966E0
1.363198429E1,-2.084565125E0,3.828289032E0,-7.613168335E-1,4.425021129E0
1.364196229E1,-1.713935852E0,3.903881836E0,-9.686357117E-1,4.372199062E0
1.365194029E1,-1.451830902E0,3.993695068E0,-1.179098053E0,4.409953003E0
1.366191829E1,-1.146316223E0,3.971690826E0,-1.165925446E0,4.295084522E0
1.367189629E1,-7.008425903E-1,3.767515411E0,-1.167122955E0,4.005936683E0
1.368187492E1,-1.163081360E-1,3.382366333E0,-1.155147858E0,3.576072729E0
1.369185292E1,7.577243042E-1,2.811902618E0,-1.033151550E0,3.090039576E0
1.370183092E1,1.615290985E0,2.229613495E0,-8.024812317E-1,2.867807077E0
1.371180792E1,2.799478455E0,1.112486572E0,-6.644682312E-1,3.084837763E0
1.372178592E1,5.210215302E0,-1.739981689E0,-9.139993286E-1,5.568597179E0
1.373176392E1,9.246871033E0,-5.978717194E0,-8.370593262E-1,1.104311331E1
1.374174192E1,1.375908783E1,-1.056592804E1,5.643264771E-2,1.734804075E1
1.375171992E1,2.021905426E1,-1.737526794E1,7.723937988E-2,2.665925838E1
1.376169792E1,2.658636337E1,-2.493080612E1,1.934577026E0,3.649825201E1
1.377167592E1,3.065160965E1,-3.055027039E1,4.419260101E0,4.350137992E1
1.378165392E1,3.291909439E1,-3.221944931E1,4.239034882E0,4.625720599E1
1.379163192E1,3.346920044E1,-3.207350281E1,5.861211548E0,4.672526898E1
1.380160992E1,3.051329727E1,-3.104618912E1,6.802454224E0,4.405905755E1
1.381158692E1,2.553794357E1,-2.878648819E1,6.647077332E0,3.905165939E1
1.382156492E1,2.202953934E1,-2.753284515E1,7.828420715E0,3.611983301E1
1.383154292E1,1.886976013E1,-2.605421997E1,8.569230194E0,3.329146936E1
1.384152092E1,1.547736465E1,-2.237621841E1,8.070916443E0,2.837928222E1
1.385149892E1,1.312785049E1,-1.826456863E1,6.757248230E0,2.348606671E1
1.386147692E1,1.174352921E1,-1.511272293E1,4.768034821E0,1.972407231E1
1.387145492E1,1.073223221E1,-1.249287094E1,2.252366180E0,1.662304984E1
1.388143292E1,9.771080933E0,-9.651479645E0,-5.840853882E-1,1.374649911E1
1.389141092E1,8.635991364E0,-6.371799774E0,-2.957400055E0,1.113222324E1
1.390138892E1,7.252717896E0,-3.555556183E0,-4.632566528E0,9.311528837E0
1.391136692E1,5.796096954E0,-1.568288727E0,-5.614075470E0,8.220225837E0
1.392134392E1,4.336332550E0,-3.206332397E-1,-5.931565247E0,7.354593934E0
1.393132192E1,2.989882507E0,3.665876770E-1,-5.950126648E0,6.669167194E0
1.394129992E1,1.793420563E0,7.565267944E-1,-5.853128357E0,6.168290012E0
1.395127792E1,7.604187012E-1,1.217418365E0,-5.610932007E0,5.791623439E0
1.396125592E1,-4.775070190E-2,1.617536316E0,-5.372627563E0,5.611045428E0
1.397123392E1,-6.376739502E-1,1.935774536E0,-5.091961212E0,5.484698725E0
1.398121192E1,-7.056326294E-1,2.080373840E0,-4.574786682E0,5.074893685E0
1.399118992E1,-5.969586182E-1,2.275418243E0,-3.945046234E0,4.593177284E0
1.400116792E1,-5.583389282E-1,2.498604126E0,-3.344046021E0,4.211580312E0
1.401114592E1,-4.516108704E-1,2.778971100E0,-2.605930939E0,3.836340549E0
1.402112392E1,-2.056723022E-1,2.971919861E0,-1.928439789E0,3.548730586E0
1.403110092E1,-9.310638428E-2,3.170556793E0,-1.429676971E0,3.479234890E0
1.404107892E1,-6.735992432E-2,3.333118744E0,-1.106199646E0,3.512534068E0
1.405105692E1,-1.248403931E-1,3.423381042E0,-8.987310791E-1,3.541587277E0
1.406103492E1,-1.038839722E-1,3.500171356E0,-7.833210754E-1,3.588256305E0
1.407101292E1,2.634521484E-2,3.440894623E0,-8.140072632E-1,3.535966304E0
1.408099092E1,2.028282166E-1,3.385958862E0,-8.990304565E-1,3.509146971E0
1.409096892E1,4.451742554E-1,3.221450958E0,-1.202898560E0,3.467404121E0
1.410094692E1,7.732919312E-1,3.082988892E0,-1.546883240E0,3.534918482E0
1.411092492E1,1.191222839E0,3.009491730E0,-1.718276825E0,3.664495541E0
1.412090292E1,1.505269775E0,2.924318848E0,-1.791175232E0,3.745101672E0
1.413088092E1,1.933978271E0,2.692151642E0,-1.831740875E0,3.787245312E0
1.414085892E1,2.375559998E0,2.169438629E0,-1.660047913E0,3.620153082E0
1.415083592E1,2.974614258E0,1.453926544E0,-1.475631409E0,3.624875230E0
1.416081392E1,3.783083038E0,6.227050781E-1,-1.069974976E0,3.980493102E0
1.417079192E1,5.247188416E0,-1.128802643E0,-8.904981995E-1,5.440603709E0
1.418076992E1,8.156239014E0,-4.844825134E0,-1.057850189E0,9.545449830E0
1.419074792E1,1.234692444E1,-1.087817871E1,-5.026547241E-1,1.646310958E1
1.420072592E1,1.719189926E1,-1.791983551E1,-7.252418518E-1,2.484366882E1
1.421070392E1,2.133618118E1,-2.401770493E1,1.942959595E-1,3.212663269E1
1.422068192E1,2.406246185E1,-2.741803391E1,2.404599609E0,3.655862077E1
1.423065992E1,2.888782745E1,-3.206856308E1,3.882626038E0,4.333559851E1
1.424063792E1,3.188025467E1,-3.527534454E1,5.971232758E0,4.792031084E1
1.425061592E1,3.038366684E1,-3.459276398E1,6.804100800E0,4.654161920E1
1.426059292E1,2.697615280E1,-3.121937897E1,7.535479889E0,4.194217329E1
1.427057092E1,2.383972504E1,-2.941098953E1,8.125403137E0,3.872158276E1
1.428054892E1,2.042936691E1,-2.728376312E1,8.466394043E0,3.512040135E1
1.429052692E1,1.610201569E1,-2.325429245E1,7.960146790E0,2.938368533E1
1.430050492E1,1.240470428E1,-1.860421234E1,6.279890900E0,2.322564176E1
1.431048292E1,9.916428680E0,-1.462129486E1,4.219575348E0,1.816377266E1
1.432046092E1,8.395890656E0,-1.124970612E1,1.741029510E0,1.414489489E1
1.433043892E1,7.228318634E0,-8.182733917E0,-4.772076416E-1,1.092856129E1
1.434041692E1,6.348598022E0,-5.334007874E0,-2.305954742E0,8.606611652E0
1.435039492E1,5.535638580E0,-2.887645111E0,-3.563639374E0,7.188971718E0
1.436037192E1,4.735252991E0,-1.166823578E0,-4.390220490E0,6.561869710E0
1.437034992E1,3.704646149E0,9.699829102E-2,-4.859344940E0,6.111222873E0
1.438032792E1,2.628833313E0,9.768685913E-1,-5.229225769E0,5.933787911E0
1.439030592E1,1.305734711E0,1.511706390E0,-5.366490326E0,5.726204481E0
1.440028392E1,3.014730835E-1,2.115850067E0,-5.372477875E0,5.781974234E0
1.441026192E1,-2.727328491E-1,2.472258911E0,-5.435945892E0,5.977955761E0
1.442023992E1,-3.797602844E-1,2.492167511E0,-5.359754333E0,5.923013025E0
1.443021792E1,-2.968327332E-1,2.516566772E0,-5.196743317E0,5.781639827E0
1.444019592E1,-3.149450684E-1,2.781815186E0,-4.991520081E0,5.723020080E0
1.445017392E1,-2.237846375E-1,2.981949005E0,-4.836143188E0,5.685981039E0
1.446015192E1,-1.357676697E-1,3.015179901E0,-4.576732635E0,5.482355727E0
1.447012992E1,-2.344125366E-1,3.299738159E0,-4.187392273E0,5.336429069E0
1.448010692E1,-3.094065857E-1,3.532803497E0,-3.905678101E0,5.275486178E0
1.449008492E1,-3.658392334E-1,3.529809723E0,-3.679797821E0,5.112172437E0
1.450006292E1,-4.489164734E-1,3.542832642E0,-3.479813690E0,4.986210229E0
1.451004092E1,-4.903802490E-1,3.520529022E0,-3.288960571E0,4.842711949E0
1.452001892E1,-4.501139832E-1,3.367098083E0,-3.025658112E0,4.549127291E0
1.452999692E1,-2.555186462E-1,3.230432281E0,-2.797831879E0,4.281220121E0
1.453997492E1,-8.532257080E-3,3.107687531E0,-2.568359070E0,4.031657587E0
1.454995292E1,1.853146362E-1,2.968626709E0,-2.382894745E0,3.811203670E0
1.455993092E1,5.643264771E-1,2.736758881E0,-2.153272247E0,3.527732262E0
1.456990892E1,8.396040344E-1,2.528392181E0,-1.907034302E0,3.276351902E0
1.457988692E1,1.246607666E0,2.248773651E0,-1.725910950E0,3.096737350E0
1.458986392E1,1.660946045E0,1.742975464E0,-1.599423981E0,2.890477867E0
1.459984192E1,2.257006531E0,1.215173035E0,-1.323697357E0,2.884943444E0
1.460981992E1,2.906954956E0,3.640429688E-1,-9.394464111E-1,3.076601040E0
1.461979792E1,4.465364227E0,-1.225800934E0,-8.559201050E-1,4.708998284E0
1.462977592E1,8.373886414E0,-5.445825348E0,-9.666897583E-1,1.003561042E1
1.463975392E1,1.499237320E1,-1.359188553E1,-1.401685181E0,2.028485464E1
1.464973192E1,2.225571899E1,-2.370156235E1,-2.012864227E0,3.257503197E1
1.465970992E1,2.548465439E1,-2.994403107E1,5.372328186E-1,3.932430832E1
1.466968792E1,2.579465973E1,-3.115156998E1,1.933978271E0,4.049104907E1
1.467966592E1,2.821647354E1,-3.325334930E1,3.049907684E0,4.371792031E1
1.468964392E1,2.874771881E1,-3.357772476E1,6.261628876E0,4.464418140E1
1.469962092E1,2.536834625E1,-3.064547241E1,7.280260620E0,4.044379020E1
1.470959892E1,2.198118988E1,-2.801244781E1,7.992629242E0,3.649317831E1
1.471957692E1,1.999362305E1,-2.685475525E1,9.484427032E0,3.479766081E1
1.472955492E1,1.736913071E1,-2.455867996E1,9.790839844E0,3.163346342E1
1.473953292E1,1.453627167E1,-2.002116577E1,8.970695343E0,2.631774397E1
1.474951092E1,1.308114761E1,-1.614572479E1,7.247778168E0,2.200752463E1
1.475948892E1,1.214065338E1,-1.315778824E1,4.659660187E0,1.849960240E1
1.476946692E1,1.131541946E1,-1.021595581E1,2.194286957E0,1.540192735E1
1.477944492E1,1.054093002E1,-7.432943115E0,4.819976807E-2,1.289814608E1
1.478942292E1,9.739795990E0,-4.856351166E0,-1.617835693E0,1.100296164E1
1.479939992E1,8.946146393E0,-2.870281219E0,-2.424059143E0,9.702995016E0
1.480937792E1,7.782615967E0,-1.237925720E0,-2.761008453E0,8.350134074E0
1.481935592E1,6.365363159E0,-4.730163574E-2,-3.302133179E0,7.171064713E0
1.482933392E1,4.881199493E0,8.602610779E-1,-4.098327484E0,6.431364224E0
1.483931192E1,3.487148438E0,1.730401611E0,-4.827161865E0,6.201289030E0
1.484928992E1,2.132914581E0,2.455942841E0,-5.735473022E0,6.593681114E0
1.485926792E1,1.217118988E0,2.835553436E0,-6.720873871E0,7.395396373E0
1.486924592E1,6.447093201E-1,3.056044922E0,-7.353009338E0,7.988855175E0
1.487922392E1,2.939886475E-1,3.196153564E0,-7.609875183E0,8.259057285E0
1.488920192E1,-9.235794067E-2,3.441493378E0,-7.503745880E0,8.255822726E0
1.489917992E1,-3.231779480E-1,3.566034393E0,-7.002138977E0,7.864540389E0
1.490915692E1,-4.255650330E-1,3.634741516E0,-6.245312805E0,7.238534625E0
1.491913492E1,-6.074368286E-1,3.610042877E0,-5.526208191E0,6.628752978E0
1.492911292E1,-9.473799133E-1,3.586392059E0,-4.687651978E0,5.977776992E0
1.493909092E1,-1.205143890E0,3.527414703E0,-3.866010590E0,5.370387711E0
1.494906892E1,-1.407972107E0,3.443738708E0,-3.066972198E0,4.821622156E0
1.495904692E1,-1.539997559E0,3.513643341E0,-2.320474548E0,4.483512478E0
1.496902492E1,-1.528321838E0,3.575165405E0,-1.610500946E0,4.208478183E0
1.497900292E1,-1.229094086E0,3.544479218E0,-1.021625519E0,3.888151733E0
1.498898092E1,-8.348139954E-1,3.586990814E0,-6.023474121E-1,3.731787764E0
1.499895892E1,-2.421963501E-1,3.456911316E0,-3.207829285E-1,3.480200656E0
1.500893692E1,3.113525391E-1,3.384012909E0,-1.675016785E-1,3.402431569E0
1.501891492E1,7.280859375E-1,3.261866913E0,-5.029541016E-2,3.342516196E0
1.502889192E1,1.076860657E0,2.988535309E0,-5.987548828E-3,3.176634700E0
1.503886992E1,1.584155731E0,2.617157593E0,7.604187012E-2,3.060203525E0
1.504884792E1,2.187401276E0,1.934427338E0,8.307723999E-2,2.921238657E0
1.505882592E1,2.887645111E0,9.404942322E-1,9.909393311E-2,3.038559411E0
1.506880392E1,4.145629120E0,-7.997868347E-1,1.151106262E-1,4.223641822E0
1.507878192E1,6.817123718E0,-4.454137573E0,-4.438270569E-1,8.155335662E0
1.508875992E1,1.231938171E1,-1.101334763E1,-6.882687378E-1,1.653888465E1
1.509873792E1,1.874866196E1,-1.900343216E1,-6.015989685E-1,2.670214749E1
1.510871592E1,2.567460938E1,-2.685430618E1,-8.982820129E-1,3.716377588E1
1.511869392E1,2.951921448E1,-3.129886368E1,1.585353241E0,4.305248234E1
1.512867092E1,3.231165756E1,-3.276266968E1,2.957849121E0,4.611056940E1
1.513864892E1,3.530528229E1,-3.472389130E1,3.840114441E0,4.966848159E1
1.514862692E1,3.358910110E1,-3.342534164E1,5.517077179E0,4.770659617E1
1.515860492E1,2.923016556E1,-3.039324692E1,6.299051056E0,4.263601859E1
1.516858292E1,2.525233749E1,-2.865101990E1,7.577093353E0,3.893550865E1
1.517856092E1,2.086645798E1,-2.578148712E1,9.175469513E0,3.441341871E1
1.518853892E1,1.657817551E1,-2.137659714E1,9.737999725E0,2.875105993E1
1.519851692E1,1.399769165E1,-1.762928970E1,8.785530396E0,2.416428711E1
1.520849492E1,1.215487381E1,-1.474224335E1,6.201004944E0,2.008798543E1
1.521847292E1,1.047327072E1,-1.153426437E1,3.255130920E0,1.591617201E1
1.522845092E1,9.204209747E0,-8.497229919E0,7.494914246E-1,1.254918845E1
1.523842792E1,8.336613922E0,-5.767805786E0,-1.261277161E0,1.021555360E1
1.524840592E1,7.230264587E0,-3.423680420E0,-2.714305573E0,8.447826251E0
1.525838392E1,5.666466522E0,-1.755549316E0,-3.742367706E0,7.013994033E0
1.526836192E1,3.803740082E0,-7.955955505E-1,-4.653522949E0,6.062729313E0
1.527833992E1,1.807341614E0,-4.086502075E-1,-5.854924622E0,6.141141671E0
1.528831792E1,-1.899549866E-1,1.212478638E-1,-6.769522705E0,6.773272591E0
1.529829592E1,-1.959125977E0,7.161108398E-1,-7.429350586E0,7.716620987E0
1.530827392E1,-2.979553986E0,9.005273438E-1,-7.957302704E0,8.544434315E0
1.531825192E1,-3.504512329E0,1.118025055E0,-8.071964264E0,8.870636604E0
1.532822992E1,-3.740421753E0,1.369951172E0,-7.975864105E0,8.915263840E0
1.533820792E1,-3.833977203E0,1.924248505E0,-7.514373779E0,8.652625428E0
1.534818492E1,-3.392994232E0,2.017354889E0,-6.733597412E0,7.805348469E0
1.535816292E1,-3.081192627E0,2.252066803E0,-5.809119873E0,6.950642171E0
1.536814092E1,-2.771786041E0,2.507884827E0,-4.886588287E0,6.152319014E0
1.537811892E1,-2.298021240E0,2.563718719E0,-3.926185455E0,5.221923738E0
1.538809692E1,-1.872156830E0,2.665057983E0,-2.996468811E0,4.425644652E0
1.539807492E1,-1.482666779E0,2.847528534E0,-2.336341553E0,3.970542958E0
1.540805292E1,-1.198108521E0,2.975063324E0,-1.702709198E0,3.631209774E0
1.541803092E1,-9.264234924E-1,3.049608307E0,-1.208437042E0,3.408620160E0
1.542800892E1,-5.198689270E-1,3.135829010E0,-8.809181213E-1,3.298439634E0
1.543798692E1,-1.895059204E-1,3.266507263E0,-7.240443420E-1,3.351152399E0
1.544796492E1,1.886077881E-1,3.313958588E0,-5.905220032E-1,3.371440442E0
1.545794192E1,5.947132874E-1,3.397035828E0,-6.030958557E-1,3.501037121E0
1.546791992E1,8.571176147E-1,3.547023926E0,-7.996371460E-1,3.735699252E0
1.547789792E1,1.268761597E0,3.379222870E0,-1.009949799E0,3.748186467E0
1.548787592E1,1.792821808E0,3.008593597E0,-1.038839722E0,3.653085468E0
1.549785392E1,2.507884827E0,2.512974243E0,-1.059347076E0,3.704961819E0
1.550783192E1,3.461401978E0,1.500030670E0,-1.135089569E0,3.939520782E0
1.551780992E1,5.094655609E0,-4.599934387E-1,-1.393601990E0,5.301814430E0
1.552778792E1,7.962092743E0,-4.101470947E0,-1.952839050E0,9.166818703E0
1.553776592E1,1.170056854E1,-8.771010590E0,-1.717378693E0,1.472356345E1
1.554774392E1,1.628628250E1,-1.422447006E1,-1.363514557E0,2.166651145E1
1.555772192E1,2.183644089E1,-2.034748718E1,-1.154399414E0,2.986943293E1
1.556769892E1,2.723256958E1,-2.521536438E1,1.127904510E0,3.713084453E1
1.557767692E1,3.109304169E1,-2.790197754E1,4.297862549E0,4.199725246E1
1.558765492E1,3.278826645E1,-2.752461227E1,5.377716980E0,4.314619957E1
1.559763292E1,3.327849701E1,-2.740965134E1,5.606291656E0,4.347617573E1
1.560761092E1,3.338208160E1,-2.944197510E1,6.145320740E0,4.493281915E1
1.561758892E1,3.109019760E1,-3.184867035E1,6.738986206E0,4.501502110E1
1.562756692E1,2.589989090E1,-3.166769669E1,8.480015717E0,4.177987588E1
1.563754492E1,2.019375687E1,-2.946293152E1,1.035351974E1,3.718934688E1
1.564752292E1,1.521990005E1,-2.464999008E1,1.142424316E1,3.114130217E1
1.565750092E1,1.253283783E1,-1.950294342E1,1.060185333E1,2.549188342E1
1.566747892E1,1.134850067E1,-1.598555786E1,8.439001007E0,2.134345955E1
1.567745592E1,1.056308395E1,-1.269075943E1,5.280868378E0,1.733556138E1
1.568743367E1,1.005084915E1,-9.668244781E0,2.269131317E0,1.412952521E1
1.569741167E1,9.450896759E0,-6.689738617E0,-3.014730835E-1,1.158287263E1
1.570738967E1,8.678353271E0,-3.928131409E0,-2.615211639E0,9.878429217E0
1.571736767E1,7.790549469E0,-1.938468933E0,-3.952979736E0,8.948540195E0
1.572734567E1,6.537505188E0,-6.117778015E-1,-4.626279602E0,8.032167150E0
1.573732367E1,5.087919617E0,3.556604004E-1,-5.253325653E0,7.321943100E0
1.574730167E1,3.606600037E0,8.976832581E-1,-5.641019440E0,6.755331182E0
1.575727967E1,2.178419952E0,1.266067200E0,-6.196813660E0,6.689464790E0
1.576725767E1,9.306147766E-1,1.471889191E0,-6.737339630E0,6.958753261E0
1.577723467E1,-8.996292114E-2,1.660796356E0,-7.088359680E0,7.280877751E0
1.578721267E1,-7.213499451E-1,1.806144104E0,-7.125482483E0,7.386135856E0
1.579719067E1,-1.387165375E0,2.243384857E0,-6.662495270E0,7.165601623E0
1.580716867E1,-1.830543365E0,2.680326233E0,-6.219416656E0,7.015424526E0
1.581714667E1,-2.048490143E0,2.804418182E0,-5.809269562E0,6.768211436E0
1.582712467E1,-2.159110107E0,2.935994568E0,-5.199587402E0,6.349608627E0
1.583710267E1,-2.452500000E0,3.256627808E0,-4.489015045E0,6.063962154E0
1.584708067E1,-2.766696625E0,3.676953735E0,-3.681594086E0,5.893109026E0
1.585705867E1,-2.676434326E0,3.896247711E0,-2.834056549E0,5.511435698E0
1.586703667E1,-2.561473389E0,4.167333984E0,-1.895059204E0,5.245861974E0
1.587701467E1,-2.214644623E0,4.539609833E0,-1.290017395E0,5.213142346E0
1.588699167E1,-1.687740326E0,4.742737427E0,-9.466314697E-1,5.122317527E0
1.589696967E1,-9.419911194E-1,4.747377777E0,-8.581654358E-1,4.915423781E0
1.590694767E1,-1.437011719E-2,4.774471436E0,-1.124311981E0,4.905085261E0
1.591692567E1,9.906399536E-1,4.742138672E0,-1.464404755E0,5.061000690E0
1.592690367E1,1.885179749E0,4.372108154E0,-1.838776245E0,5.103952437E0
1.593688167E1,2.483784943E0,3.873794403E0,-2.136806488E0,5.073599579E0
1.594685967E1,3.025059357E0,3.406615906E0,-2.067949677E0,5.003242139E0
1.595683767E1,3.235671387E0,3.024759979E0,-1.661544800E0,4.730694809E0
1.596681567E1,3.476819916E0,2.468217316E0,-1.243314514E0,4.441419190E0
1.597679367E1,4.215683441E0,1.215023346E0,-6.340814209E-1,4.432869032E0
1.598677167E1,5.670508118E0,-1.081650696E0,2.350112915E-1,5.777530688E0
1.599674867E1,8.712182922E0,-4.721481628E0,1.301543427E0,9.994425213E0
1.600672667E1,1.215367630E1,-9.025930481E0,3.419638824E0,1.552009015E1
1.601670467E1,1.694835571E1,-1.347572708E1,5.429658966E0,2.232315341E1
1.602668267E1,2.439222610E1,-2.024315414E1,8.096662903E0,3.271577501E1
1.603666067E1,2.967504044E1,-2.648008438E1,1.251113297E1,4.169330092E1
1.604663867E1,3.186079514E1,-2.762086212E1,1.316048264E1,4.417262268E1
1.605661667E1,3.135589508E1,-2.523736862E1,1.330942291E1,4.239407588E1
1.606659467E1,3.012021469E1,-2.263398239E1,1.414049469E1,4.024273949E1
1.607657267E1,2.810824860E1,-2.069132217E1,1.321736435E1,3.732161804E1
1.608655067E1,2.549423447E1,-1.906869644E1,1.272339157E1,3.428492188E1
1.609652867E1,2.333736969E1,-1.918290894E1,1.250304977E1,3.269469487E1
1.610650567E1,2.096510284E1,-1.817879700E1,1.143936172E1,3.001438312E1
1.611648367E1,1.798689606E1,-1.408091858E1,1.019245468E1,2.501373283E1
1.612646167E1,1.634061951E1,-1.006596771E1,9.448352051E0,2.139184210E1
1.613643967E1,1.546044983E1,-7.289840698E0,8.044571228E0,1.889133168E1
1.614641767E1,1.426458664E1,-4.962630157E0,5.915548553E0,1.622035279E1
1.615639567E1,1.259929962E1,-2.282902679E0,3.710034943E0,1.333110479E1
1.616637367E1,1.077339661E1,3.606001282E-1,1.617386627E0,1.090009387E1
1.617635167E1,8.852890320E0,2.039957886E0,-0.000000000E0,9.084882784E0
1.618632967E1,7.173233185E0,2.892584839E0,-9.367520142E-1,7.791009287E0
1.619630767E1,5.628744965E0,3.475023651E0,-1.286275177E0,6.738921507E0
1.620628467E1,4.155957642E0,4.076772308E0,-1.192120972E0,5.942491799E0
1.621626267E1,3.055296478E0,4.436773682E0,-1.040785675E0,5.486623014E0
1.622624067E1,2.201472015E0,4.597689056E0,-9.383985901E-1,5.183224441E0
1.623621867E1,1.552870789E0,4.718787231E0,-9.075627136E-1,5.049953535E0
1.624619667E1,1.013093262E0,5.017116852E0,-1.329834595E0,5.288315376E0
1.625617467E1,1.008303223E0,4.725972290E0,-1.775757294E0,5.148281601E0
1.626615267E1,7.110214233E-1,4.503684540E0,-2.173929291E0,5.051207228E0
1.627613067E1,2.963836670E-1,4.429289246E0,-2.718047791E0,5.205211839E0
1.628610867E1,8.771759033E-2,4.230951691E0,-3.018173676E0,5.197886005E0
1.629608667E1,-1.453477478E-1,4.021836548E0,-3.140768738E0,5.104970465E0
1.630606467E1,-2.421963501E-1,3.785328369E0,-3.309168549E0,5.033683186E0
1.631604167E1,-3.047662354E-1,3.432512054E0,-3.098706207E0,4.634328605E0
1.632601967E1,-3.754193115E-1,3.181933136E0,-2.692900085E0,4.185373222E0
1.633599767E1,-3.326083374E-1,3.069367218E0,-2.321073303E0,3.862515334E0
1.634597567E1,-3.306623840E-1,2.984044647E0,-1.906585236E0,3.556533049E0
1.635595367E1,-3.005749512E-1,2.743644562E0,-1.523082733E0,3.152413646E0
1.636593167E1,-8.232879639E-3,2.473157043E0,-9.919871521E-1,2.664697366E0
1.637590967E1,4.486170959E-1,2.167043610E0,-4.640350342E-1,2.261120036E0
1.638588767E1,7.406597900E-1,1.980980530E0,3.981719971E-2,2.115288678E0
1.639586567E1,1.195863190E0,1.698966980E0,9.201365662E-1,2.272273942E0
1.640584367E1,1.635498962E0,1.325792999E0,1.451980591E0,2.557504950E0
1.641582167E1,1.976789246E0,1.007105713E0,1.922152863E0,2.935409557E0
1.642579867E1,2.529140625E0,4.599934387E-1,2.479893036E0,3.571836465E0
1.643577667E1,3.173700256E0,-2.209405518E-1,3.216810608E0,4.524274365E0
1.644575467E1,4.193828888E0,-1.354383545E0,4.338577881E0,6.184319975E0
1.645573267E1,5.666316833E0,-3.024161224E0,6.288423157E0,8.988713110E0
1.646571067E1,7.973918152E0,-5.139113159E0,9.251661072E0,1.325092779E1
1.647568867E1,1.200234100E1,-8.606802063E0,1.326331879E1,1.985066388E1
1.648566667E1,1.646680710E1,-1.214289871E1,1.676828018E1,2.645337304E1
1.649564467E1,2.048160828E1,-1.512335083E1,1.923919189E1,3.191173017E1
1.650562267E1,2.401875275E1,-1.885015091E1,2.118095398E1,3.715994462E1
1.651560067E1,2.587773697E1,-2.032593201E1,2.216455856E1,3.967453136E1
1.652557867E1,2.497122208E1,-1.901121597E1,2.272469376E1,3.874790280E1
1.653555567E1,2.246633102E1,-1.823912155E1,2.221754837E1,3.648316105E1
1.654553367E1,1.924742477E1,-1.752256165E1,2.192445786E1,3.403212276E1
1.655551167E1,1.579201035E1,-1.631547180E1,2.217234238E1,3.173633529E1
1.656548967E1,1.289703049E1,-1.488968674E1,2.283980438E1,3.016111455E1
1.657546767E1,1.040980270E1,-1.301348831E1,2.242890884E1,2.794227661E1
1.658544567E1,8.602461090E0,-1.089988358E1,2.113050888E1,2.528454477E1
1.659542367E1,7.130422211E0,-8.610095215E0,1.868369705E1,2.177285457E1
1.660540167E1,6.101761322E0,-6.446344757E0,1.578901657E1,1.811297591E1
1.661537967E1,5.529651031E0,-4.605173492E0,1.281859360E1,1.470037432E1
1.662535767E1,4.683909760E0,-2.803070984E0,1.049527496E1,1.182992029E1
1.663533467E1,3.776347046E0,-1.342558136E0,8.583151245E0,9.472789698E0
1.664531267E1,2.935246124E0,-1.841171265E-1,6.834786987E0,7.440690968E0
1.665529067E1,2.157313843E0,8.887019348E-1,5.309009857E0,5.799084394E0
1.666526867E1,1.592687988E0,1.632205811E0,4.033661957E0,4.633700424E0
1.667524667E1,1.021326141E0,2.221081238E0,2.732866974E0,3.666724812E0
1.668522446E1,4.364923096E-1,2.570903778E0,1.728006592E0,3.128270857E0
1.669520246E1,-2.754272461E-2,2.663561096E0,1.087039490E0,2.876972570E0
1.670518046E1,-4.754113770E-1,2.910996552E0,6.792874146E-1,3.026771926E0
1.671515846E1,-6.119274902E-1,2.973267059E0,4.293072510E-1,3.065791411E0
1.672513646E1,-7.464976501E-1,3.118315430E0,8.741821289E-2,3.207614660E0
1.673511446E1,-6.676116943E-1,3.148702240E0,-4.580474854E-2,3.219026133E0
1.674509146E1,-5.312452698E-1,3.299887848E0,-2.914439392E-1,3.355059003E0
